trial_count,FB,TS,correct_action,response,rt,stim,correct,con_ts,con_stim,curr_ts,switch
1,0,"{'probs': (0.9, 0.1), 'actions': ['l', 'k']}",k,h,0.4049379825592041,1,False,False,False,0,False
2,0,"{'probs': (0.9, 0.1), 'actions': ['l', 'k']}",l,j,0.45731115341186523,0,False,False,False,0,False
3,1,"{'probs': (0.9, 0.1), 'actions': ['l', 'k']}",k,k,0.4011859893798828,1,True,True,True,1,True
4,1,"{'probs': (0.9, 0.1), 'actions': ['l', 'k']}",k,k,0.48794102668762207,1,True,True,True,1,False
5,1,"{'probs': (0.9, 0.1), 'actions': ['l', 'k']}",l,j,0.6185340881347656,0,False,False,False,0,True
6,1,"{'probs': (0.9, 0.1), 'actions': ['l', 'k']}",k,k,0.5208330154418945,1,True,True,True,1,True
7,0,"{'probs': (0.9, 0.1), 'actions': ['l', 'k']}",l,j,0.4182589054107666,0,False,False,False,0,True
8,1,"{'probs': (0.9, 0.1), 'actions': ['l', 'k']}",k,k,0.5771780014038086,1,True,True,True,1,True
9,0,"{'probs': (0.9, 0.1), 'actions': ['l', 'k']}",l,j,0.4033200740814209,0,False,False,False,0,True
10,0,"{'probs': (0.9, 0.1), 'actions': ['l', 'k']}",l,h,0.7025008201599121,0,False,False,True,0,False
11,1,"{'probs': (0.9, 0.1), 'actions': ['l', 'k']}",l,l,0.3760490417480469,0,True,True,True,1,True
12,1,"{'probs': (0.9, 0.1), 'actions': ['l', 'k']}",k,k,0.6240730285644531,1,True,True,True,1,False
13,1,"{'probs': (0.9, 0.1), 'actions': ['l', 'k']}",l,l,0.4011969566345215,0,True,True,True,1,False
14,1,"{'probs': (0.9, 0.1), 'actions': ['l', 'k']}",l,l,0.448667049407959,0,True,True,True,1,False
15,1,"{'probs': (0.9, 0.1), 'actions': ['l', 'k']}",k,k,0.3703889846801758,1,True,True,True,1,False
16,1,"{'probs': (0.9, 0.1), 'actions': ['l', 'k']}",l,l,0.5864870548248291,0,True,True,True,1,False
17,0,"{'probs': (0.9, 0.1), 'actions': ['h', 'j']}",j,k,0.40173912048339844,1,False,False,True,1,False
18,0,"{'probs': (0.9, 0.1), 'actions': ['h', 'j']}",h,l,0.4795379638671875,0,False,False,True,1,False
19,0,"{'probs': (0.9, 0.1), 'actions': ['h', 'j']}",j,k,0.5299580097198486,1,False,False,True,1,False
20,1,"{'probs': (0.9, 0.1), 'actions': ['h', 'j']}",j,k,0.5890498161315918,1,False,False,True,1,False
21,1,"{'probs': (0.9, 0.1), 'actions': ['h', 'j']}",j,k,0.6502180099487305,1,False,False,True,1,False
22,0,"{'probs': (0.9, 0.1), 'actions': ['h', 'j']}",h,l,0.4351999759674072,0,False,False,True,1,False
23,0,"{'probs': (0.9, 0.1), 'actions': ['h', 'j']}",h,j,0.7219638824462891,0,False,True,False,0,True
24,0,"{'probs': (0.9, 0.1), 'actions': ['h', 'j']}",j,k,0.436521053314209,1,False,False,True,1,True
25,0,"{'probs': (0.9, 0.1), 'actions': ['h', 'j']}",h,k,0.4294319152832031,0,False,False,False,1,False
26,0,"{'probs': (0.9, 0.1), 'actions': ['h', 'j']}",j,k,0.35787391662597656,1,False,False,True,1,False
27,1,"{'probs': (0.9, 0.1), 'actions': ['h', 'j']}",j,j,0.7346680164337158,1,True,True,True,0,True
28,1,"{'probs': (0.9, 0.1), 'actions': ['h', 'j']}",h,h,0.8352789878845215,0,True,True,True,0,False
29,1,"{'probs': (0.9, 0.1), 'actions': ['h', 'j']}",h,h,0.7486438751220703,0,True,True,True,0,False
30,1,"{'probs': (0.9, 0.1), 'actions': ['h', 'j']}",h,h,0.5850949287414551,0,True,True,True,0,False
31,0,"{'probs': (0.9, 0.1), 'actions': ['h', 'j']}",j,j,0.4853181838989258,1,True,True,True,0,False
32,0,"{'probs': (0.9, 0.1), 'actions': ['h', 'j']}",j,k,0.5482690334320068,1,False,False,True,1,True
33,1,"{'probs': (0.9, 0.1), 'actions': ['l', 'k']}",k,l,0.6491451263427734,1,False,True,False,1,False
34,0,"{'probs': (0.9, 0.1), 'actions': ['l', 'k']}",k,l,0.46810102462768555,1,False,True,False,1,False
35,0,"{'probs': (0.9, 0.1), 'actions': ['l', 'k']}",l,j,0.6758511066436768,0,False,False,False,0,True
36,0,"{'probs': (0.9, 0.1), 'actions': ['l', 'k']}",k,j,0.8011050224304199,1,False,False,True,0,False
37,0,"{'probs': (0.9, 0.1), 'actions': ['l', 'k']}",k,l,0.6881799697875977,1,False,True,False,1,True
38,0,"{'probs': (0.9, 0.1), 'actions': ['l', 'k']}",l,k,0.7728691101074219,0,False,True,False,1,False
39,0,"{'probs': (0.9, 0.1), 'actions': ['l', 'k']}",l,h,0.597646951675415,0,False,False,True,0,True
40,0,"{'probs': (0.9, 0.1), 'actions': ['l', 'k']}",l,h,0.5275330543518066,0,False,False,True,0,False
41,1,"{'probs': (0.9, 0.1), 'actions': ['l', 'k']}",k,k,0.6678240299224854,1,True,True,True,1,True
42,0,"{'probs': (0.9, 0.1), 'actions': ['l', 'k']}",l,k,0.7013790607452393,0,False,True,False,1,False
43,0,"{'probs': (0.9, 0.1), 'actions': ['l', 'k']}",l,k,0.6116600036621094,0,False,True,False,1,False
44,1,"{'probs': (0.9, 0.1), 'actions': ['l', 'k']}",l,l,0.3951280117034912,0,True,True,True,1,False
45,1,"{'probs': (0.9, 0.1), 'actions': ['l', 'k']}",k,k,0.5583310127258301,1,True,True,True,1,False
46,1,"{'probs': (0.9, 0.1), 'actions': ['l', 'k']}",k,k,0.5291450023651123,1,True,True,True,1,False
47,1,"{'probs': (0.9, 0.1), 'actions': ['l', 'k']}",l,l,0.4878501892089844,0,True,True,True,1,False
48,0,"{'probs': (0.9, 0.1), 'actions': ['l', 'k']}",l,k,0.3312349319458008,0,False,True,False,1,False
49,0,"{'probs': (0.9, 0.1), 'actions': ['h', 'j']}",h,l,0.5401849746704102,0,False,False,True,1,False
50,0,"{'probs': (0.9, 0.1), 'actions': ['h', 'j']}",j,k,0.5258059501647949,1,False,False,True,1,False
51,1,"{'probs': (0.9, 0.1), 'actions': ['h', 'j']}",h,l,0.4331178665161133,0,False,False,True,1,False
52,0,"{'probs': (0.9, 0.1), 'actions': ['h', 'j']}",j,k,0.3264651298522949,1,False,False,True,1,False
53,0,"{'probs': (0.9, 0.1), 'actions': ['h', 'j']}",h,l,0.46150803565979004,0,False,False,True,1,False
54,0,"{'probs': (0.9, 0.1), 'actions': ['h', 'j']}",j,k,0.6594460010528564,1,False,False,True,1,False
55,1,"{'probs': (0.9, 0.1), 'actions': ['h', 'j']}",h,h,0.6049470901489258,0,True,True,True,0,True
56,0,"{'probs': (0.9, 0.1), 'actions': ['h', 'j']}",j,h,0.41756701469421387,1,False,True,False,0,False
57,1,"{'probs': (0.9, 0.1), 'actions': ['h', 'j']}",j,k,0.6300158500671387,1,False,False,True,1,True
58,1,"{'probs': (0.9, 0.1), 'actions': ['h', 'j']}",h,h,0.5661160945892334,0,True,True,True,0,True
59,0,"{'probs': (0.9, 0.1), 'actions': ['h', 'j']}",j,k,0.5472931861877441,1,False,False,True,1,True
60,1,"{'probs': (0.9, 0.1), 'actions': ['h', 'j']}",h,h,0.6144709587097168,0,True,True,True,0,True
61,1,"{'probs': (0.9, 0.1), 'actions': ['h', 'j']}",j,j,0.5971829891204834,1,True,True,True,0,False
62,1,"{'probs': (0.9, 0.1), 'actions': ['h', 'j']}",h,h,0.5941269397735596,0,True,True,True,0,False
63,1,"{'probs': (0.9, 0.1), 'actions': ['h', 'j']}",j,j,0.672044038772583,1,True,True,True,0,False
64,0,"{'probs': (0.9, 0.1), 'actions': ['h', 'j']}",j,j,0.8720080852508545,1,True,True,True,0,False
65,0,"{'probs': (0.9, 0.1), 'actions': ['l', 'k']}",l,h,0.6011829376220703,0,False,False,True,0,False
66,1,"{'probs': (0.9, 0.1), 'actions': ['l', 'k']}",l,l,0.6119341850280762,0,True,True,True,1,True
67,1,"{'probs': (0.9, 0.1), 'actions': ['l', 'k']}",l,l,0.65590500831604,0,True,True,True,1,False
68,1,"{'probs': (0.9, 0.1), 'actions': ['l', 'k']}",k,k,0.5287249088287354,1,True,True,True,1,False
69,1,"{'probs': (0.9, 0.1), 'actions': ['l', 'k']}",l,l,0.43553996086120605,0,True,True,True,1,False
70,1,"{'probs': (0.9, 0.1), 'actions': ['l', 'k']}",k,k,0.3547089099884033,1,True,True,True,1,False
71,0,"{'probs': (0.9, 0.1), 'actions': ['l', 'k']}",l,k,0.6064848899841309,0,False,True,False,1,False
72,0,"{'probs': (0.9, 0.1), 'actions': ['l', 'k']}",k,k,0.52811598777771,1,True,True,True,1,False
73,1,"{'probs': (0.9, 0.1), 'actions': ['l', 'k']}",k,k,0.734921932220459,1,True,True,True,1,False
74,1,"{'probs': (0.9, 0.1), 'actions': ['l', 'k']}",l,l,0.6605160236358643,0,True,True,True,1,False
75,1,"{'probs': (0.9, 0.1), 'actions': ['l', 'k']}",k,k,0.47361111640930176,1,True,True,True,1,False
76,1,"{'probs': (0.9, 0.1), 'actions': ['l', 'k']}",k,k,0.5526599884033203,1,True,True,True,1,False
77,1,"{'probs': (0.9, 0.1), 'actions': ['l', 'k']}",k,k,0.5757980346679688,1,True,True,True,1,False
78,1,"{'probs': (0.9, 0.1), 'actions': ['l', 'k']}",l,l,0.38120412826538086,0,True,True,True,1,False
79,1,"{'probs': (0.9, 0.1), 'actions': ['l', 'k']}",k,k,0.7190821170806885,1,True,True,True,1,False
80,1,"{'probs': (0.9, 0.1), 'actions': ['l', 'k']}",k,k,0.5822570323944092,1,True,True,True,1,False
81,0,"{'probs': (0.9, 0.1), 'actions': ['h', 'j']}",h,l,0.4119889736175537,0,False,False,True,1,False
82,0,"{'probs': (0.9, 0.1), 'actions': ['h', 'j']}",h,k,0.423659086227417,0,False,False,False,1,False
83,1,"{'probs': (0.9, 0.1), 'actions': ['h', 'j']}",j,j,0.6192319393157959,1,True,True,True,0,True
84,1,"{'probs': (0.9, 0.1), 'actions': ['h', 'j']}",h,h,0.7905831336975098,0,True,True,True,0,False
85,1,"{'probs': (0.9, 0.1), 'actions': ['h', 'j']}",j,j,0.6701958179473877,1,True,True,True,0,False
86,0,"{'probs': (0.9, 0.1), 'actions': ['h', 'j']}",j,j,0.5176742076873779,1,True,True,True,0,False
87,0,"{'probs': (0.9, 0.1), 'actions': ['h', 'j']}",j,k,0.5734701156616211,1,False,False,True,1,True
88,0,"{'probs': (0.9, 0.1), 'actions': ['h', 'j']}",h,l,0.6323118209838867,0,False,False,True,1,False
89,0,"{'probs': (0.9, 0.1), 'actions': ['h', 'j']}",j,j,0.6384639739990234,1,True,True,True,0,True
90,0,"{'probs': (0.9, 0.1), 'actions': ['h', 'j']}",j,k,0.4621140956878662,1,False,False,True,1,True
91,0,"{'probs': (0.9, 0.1), 'actions': ['h', 'j']}",j,k,0.5254249572753906,1,False,False,True,1,False
92,1,"{'probs': (0.9, 0.1), 'actions': ['h', 'j']}",h,h,0.565730094909668,0,True,True,True,0,True
93,1,"{'probs': (0.9, 0.1), 'actions': ['h', 'j']}",j,j,0.5073049068450928,1,True,True,True,0,False
94,1,"{'probs': (0.9, 0.1), 'actions': ['h', 'j']}",h,h,0.6469359397888184,0,True,True,True,0,False
95,1,"{'probs': (0.9, 0.1), 'actions': ['h', 'j']}",h,h,0.6671230792999268,0,True,True,True,0,False
96,1,"{'probs': (0.9, 0.1), 'actions': ['h', 'j']}",h,h,0.6907689571380615,0,True,True,True,0,False
97,0,"{'probs': (0.9, 0.1), 'actions': ['l', 'k']}",l,h,0.5043540000915527,0,False,False,True,0,False
98,0,"{'probs': (0.9, 0.1), 'actions': ['l', 'k']}",k,j,0.537086009979248,1,False,False,True,0,False
99,1,"{'probs': (0.9, 0.1), 'actions': ['l', 'k']}",k,k,0.4272041320800781,1,True,True,True,1,True
100,1,"{'probs': (0.9, 0.1), 'actions': ['l', 'k']}",k,k,0.5668261051177979,1,True,True,True,1,False
101,0,"{'probs': (0.9, 0.1), 'actions': ['l', 'k']}",l,h,0.48691296577453613,0,False,False,True,0,True
102,1,"{'probs': (0.9, 0.1), 'actions': ['l', 'k']}",k,k,0.5615019798278809,1,True,True,True,1,True
103,1,"{'probs': (0.9, 0.1), 'actions': ['l', 'k']}",k,k,0.5011990070343018,1,True,True,True,1,False
104,1,"{'probs': (0.9, 0.1), 'actions': ['l', 'k']}",l,l,0.494143009185791,0,True,True,True,1,False
105,1,"{'probs': (0.9, 0.1), 'actions': ['l', 'k']}",k,k,0.5759501457214355,1,True,True,True,1,False
106,0,"{'probs': (0.9, 0.1), 'actions': ['l', 'k']}",k,j,0.4615328311920166,1,False,False,True,0,True
107,1,"{'probs': (0.9, 0.1), 'actions': ['l', 'k']}",l,l,0.7564618587493896,0,True,True,True,1,True
108,0,"{'probs': (0.9, 0.1), 'actions': ['l', 'k']}",l,l,0.5823078155517578,0,True,True,True,1,False
109,0,"{'probs': (0.9, 0.1), 'actions': ['l', 'k']}",k,j,0.7705180644989014,1,False,False,True,0,True
110,0,"{'probs': (0.9, 0.1), 'actions': ['l', 'k']}",l,h,0.5171120166778564,0,False,False,True,0,False
111,1,"{'probs': (0.9, 0.1), 'actions': ['l', 'k']}",l,l,0.630551815032959,0,True,True,True,1,True
112,1,"{'probs': (0.9, 0.1), 'actions': ['l', 'k']}",k,k,0.44405412673950195,1,True,True,True,1,False
113,1,"{'probs': (0.9, 0.1), 'actions': ['h', 'j']}",j,j,0.5126011371612549,1,True,True,True,0,True
114,1,"{'probs': (0.9, 0.1), 'actions': ['h', 'j']}",j,j,0.7494549751281738,1,True,True,True,0,False
115,1,"{'probs': (0.9, 0.1), 'actions': ['h', 'j']}",j,j,0.6363120079040527,1,True,True,True,0,False
116,0,"{'probs': (0.9, 0.1), 'actions': ['h', 'j']}",h,l,0.4988400936126709,0,False,False,True,1,True
117,1,"{'probs': (0.9, 0.1), 'actions': ['h', 'j']}",h,h,0.6169860363006592,0,True,True,True,0,True
118,0,"{'probs': (0.9, 0.1), 'actions': ['h', 'j']}",j,k,0.42437195777893066,1,False,False,True,1,True
119,1,"{'probs': (0.9, 0.1), 'actions': ['h', 'j']}",j,j,0.3611268997192383,1,True,True,True,0,True
120,1,"{'probs': (0.9, 0.1), 'actions': ['h', 'j']}",h,h,0.45018482208251953,0,True,True,True,0,False
121,1,"{'probs': (0.9, 0.1), 'actions': ['h', 'j']}",h,h,0.6551740169525146,0,True,True,True,0,False
122,1,"{'probs': (0.9, 0.1), 'actions': ['h', 'j']}",h,h,0.45898914337158203,0,True,True,True,0,False
123,1,"{'probs': (0.9, 0.1), 'actions': ['h', 'j']}",j,j,0.5193428993225098,1,True,True,True,0,False
124,1,"{'probs': (0.9, 0.1), 'actions': ['h', 'j']}",j,j,0.602816104888916,1,True,True,True,0,False
125,1,"{'probs': (0.9, 0.1), 'actions': ['h', 'j']}",h,h,0.5900299549102783,0,True,True,True,0,False
126,1,"{'probs': (0.9, 0.1), 'actions': ['h', 'j']}",h,h,0.6044020652770996,0,True,True,True,0,False
127,1,"{'probs': (0.9, 0.1), 'actions': ['h', 'j']}",h,h,0.5697770118713379,0,True,True,True,0,False
128,1,"{'probs': (0.9, 0.1), 'actions': ['h', 'j']}",h,h,0.3990769386291504,0,True,True,True,0,False
129,0,"{'probs': (0.9, 0.1), 'actions': ['l', 'k']}",k,j,0.36635899543762207,1,False,False,True,0,False
130,1,"{'probs': (0.9, 0.1), 'actions': ['l', 'k']}",k,k,0.47460007667541504,1,True,True,True,1,True
131,0,"{'probs': (0.9, 0.1), 'actions': ['l', 'k']}",l,h,0.549483060836792,0,False,False,True,0,True
132,1,"{'probs': (0.9, 0.1), 'actions': ['l', 'k']}",k,k,0.4882500171661377,1,True,True,True,1,True
133,0,"{'probs': (0.9, 0.1), 'actions': ['l', 'k']}",l,h,0.5795271396636963,0,False,False,True,0,True
134,0,"{'probs': (0.9, 0.1), 'actions': ['l', 'k']}",l,h,0.5938200950622559,0,False,False,True,0,False
135,0,"{'probs': (0.9, 0.1), 'actions': ['l', 'k']}",l,h,0.5202829837799072,0,False,False,True,0,False
136,1,"{'probs': (0.9, 0.1), 'actions': ['l', 'k']}",k,j,0.5537688732147217,1,False,False,True,0,False
137,0,"{'probs': (0.9, 0.1), 'actions': ['l', 'k']}",k,k,0.6912961006164551,1,True,True,True,1,True
138,0,"{'probs': (0.9, 0.1), 'actions': ['l', 'k']}",k,j,0.5867161750793457,1,False,False,True,0,True
139,1,"{'probs': (0.9, 0.1), 'actions': ['l', 'k']}",l,l,0.47566890716552734,0,True,True,True,1,True
140,1,"{'probs': (0.9, 0.1), 'actions': ['l', 'k']}",l,l,0.5448229312896729,0,True,True,True,1,False
141,1,"{'probs': (0.9, 0.1), 'actions': ['l', 'k']}",k,k,0.44490909576416016,1,True,True,True,1,False
142,0,"{'probs': (0.9, 0.1), 'actions': ['l', 'k']}",l,j,0.44945502281188965,0,False,False,False,0,True
143,0,"{'probs': (0.9, 0.1), 'actions': ['l', 'k']}",l,h,0.4861900806427002,0,False,False,True,0,False
144,1,"{'probs': (0.9, 0.1), 'actions': ['l', 'k']}",l,l,0.5207481384277344,0,True,True,True,1,True
145,0,"{'probs': (0.9, 0.1), 'actions': ['h', 'j']}",j,k,0.5075259208679199,1,False,False,True,1,False
146,1,"{'probs': (0.9, 0.1), 'actions': ['h', 'j']}",j,j,0.395766019821167,1,True,True,True,0,True
147,1,"{'probs': (0.9, 0.1), 'actions': ['h', 'j']}",j,j,0.6105589866638184,1,True,True,True,0,False
148,1,"{'probs': (0.9, 0.1), 'actions': ['h', 'j']}",h,h,0.49756908416748047,0,True,True,True,0,False
149,1,"{'probs': (0.9, 0.1), 'actions': ['h', 'j']}",j,k,0.5764009952545166,1,False,False,True,1,True
150,0,"{'probs': (0.9, 0.1), 'actions': ['h', 'j']}",j,k,0.7025191783905029,1,False,False,True,1,False
151,1,"{'probs': (0.9, 0.1), 'actions': ['h', 'j']}",h,h,0.5642800331115723,0,True,True,True,0,True
152,0,"{'probs': (0.9, 0.1), 'actions': ['h', 'j']}",h,h,0.526298999786377,0,True,True,True,0,False
153,1,"{'probs': (0.9, 0.1), 'actions': ['h', 'j']}",h,h,0.6140878200531006,0,True,True,True,0,False
154,1,"{'probs': (0.9, 0.1), 'actions': ['h', 'j']}",j,j,0.42888498306274414,1,True,True,True,0,False
155,1,"{'probs': (0.9, 0.1), 'actions': ['h', 'j']}",h,h,0.5386180877685547,0,True,True,True,0,False
156,1,"{'probs': (0.9, 0.1), 'actions': ['h', 'j']}",h,h,0.4339160919189453,0,True,True,True,0,False
157,1,"{'probs': (0.9, 0.1), 'actions': ['h', 'j']}",j,j,0.4933469295501709,1,True,True,True,0,False
158,0,"{'probs': (0.9, 0.1), 'actions': ['h', 'j']}",j,k,0.5131368637084961,1,False,False,True,1,True
159,1,"{'probs': (0.9, 0.1), 'actions': ['h', 'j']}",h,h,0.45484280586242676,0,True,True,True,0,True
160,0,"{'probs': (0.9, 0.1), 'actions': ['h', 'j']}",h,h,0.4016580581665039,0,True,True,True,0,False
161,0,"{'probs': (0.9, 0.1), 'actions': ['l', 'k']}",k,k,0.4417121410369873,1,True,True,True,1,True
162,1,"{'probs': (0.9, 0.1), 'actions': ['l', 'k']}",l,h,0.46993589401245117,0,False,False,True,0,True
163,0,"{'probs': (0.9, 0.1), 'actions': ['l', 'k']}",l,h,0.5310947895050049,0,False,False,True,0,False
164,0,"{'probs': (0.9, 0.1), 'actions': ['l', 'k']}",k,j,0.3978099822998047,1,False,False,True,0,False
165,0,"{'probs': (0.9, 0.1), 'actions': ['l', 'k']}",k,j,0.5181331634521484,1,False,False,True,0,False
166,0,"{'probs': (0.9, 0.1), 'actions': ['l', 'k']}",k,j,0.715766191482544,1,False,False,True,0,False
167,0,"{'probs': (0.9, 0.1), 'actions': ['l', 'k']}",l,h,0.5550119876861572,0,False,False,True,0,False
168,0,"{'probs': (0.9, 0.1), 'actions': ['l', 'k']}",l,h,0.6694350242614746,0,False,False,True,0,False
169,1,"{'probs': (0.9, 0.1), 'actions': ['l', 'k']}",l,l,0.6347239017486572,0,True,True,True,1,True
170,0,"{'probs': (0.9, 0.1), 'actions': ['l', 'k']}",k,j,0.6786589622497559,1,False,False,True,0,True
171,1,"{'probs': (0.9, 0.1), 'actions': ['l', 'k']}",l,l,0.5486431121826172,0,True,True,True,1,True
172,1,"{'probs': (0.9, 0.1), 'actions': ['l', 'k']}",k,k,0.48955702781677246,1,True,True,True,1,False
173,0,"{'probs': (0.9, 0.1), 'actions': ['l', 'k']}",l,h,0.5730419158935547,0,False,False,True,0,True
174,1,"{'probs': (0.9, 0.1), 'actions': ['l', 'k']}",k,k,0.5992698669433594,1,True,True,True,1,True
175,1,"{'probs': (0.9, 0.1), 'actions': ['l', 'k']}",l,l,0.6784970760345459,0,True,True,True,1,False
176,1,"{'probs': (0.9, 0.1), 'actions': ['l', 'k']}",k,k,0.5459079742431641,1,True,True,True,1,False
177,0,"{'probs': (0.9, 0.1), 'actions': ['h', 'j']}",h,l,0.5071098804473877,0,False,False,True,1,False
178,0,"{'probs': (0.9, 0.1), 'actions': ['h', 'j']}",h,l,0.4695560932159424,0,False,False,True,1,False
179,1,"{'probs': (0.9, 0.1), 'actions': ['h', 'j']}",j,j,0.6801319122314453,1,True,True,True,0,True
180,0,"{'probs': (0.9, 0.1), 'actions': ['h', 'j']}",j,k,0.6277809143066406,1,False,False,True,1,True
181,1,"{'probs': (0.9, 0.1), 'actions': ['h', 'j']}",j,j,0.48676609992980957,1,True,True,True,0,True
182,1,"{'probs': (0.9, 0.1), 'actions': ['h', 'j']}",h,h,0.44106602668762207,0,True,True,True,0,False
183,1,"{'probs': (0.9, 0.1), 'actions': ['h', 'j']}",h,h,0.5658390522003174,0,True,True,True,0,False
184,1,"{'probs': (0.9, 0.1), 'actions': ['h', 'j']}",h,h,0.5419960021972656,0,True,True,True,0,False
185,1,"{'probs': (0.9, 0.1), 'actions': ['h', 'j']}",j,j,0.4741630554199219,1,True,True,True,0,False
186,0,"{'probs': (0.9, 0.1), 'actions': ['h', 'j']}",h,l,0.5189440250396729,0,False,False,True,1,True
187,0,"{'probs': (0.9, 0.1), 'actions': ['h', 'j']}",j,k,0.49880504608154297,1,False,False,True,1,False
188,1,"{'probs': (0.9, 0.1), 'actions': ['h', 'j']}",j,j,0.6204731464385986,1,True,True,True,0,True
189,1,"{'probs': (0.9, 0.1), 'actions': ['h', 'j']}",h,h,0.37703990936279297,0,True,True,True,0,False
190,1,"{'probs': (0.9, 0.1), 'actions': ['h', 'j']}",j,j,0.604849100112915,1,True,True,True,0,False
191,1,"{'probs': (0.9, 0.1), 'actions': ['h', 'j']}",j,j,0.5738840103149414,1,True,True,True,0,False
192,1,"{'probs': (0.9, 0.1), 'actions': ['h', 'j']}",j,j,0.5018410682678223,1,True,True,True,0,False
193,0,"{'probs': (0.9, 0.1), 'actions': ['l', 'k']}",k,j,0.3431098461151123,1,False,False,True,0,False
194,0,"{'probs': (0.9, 0.1), 'actions': ['l', 'k']}",l,h,0.4026200771331787,0,False,False,True,0,False
195,1,"{'probs': (0.9, 0.1), 'actions': ['l', 'k']}",l,l,0.429563045501709,0,True,True,True,1,True
196,1,"{'probs': (0.9, 0.1), 'actions': ['l', 'k']}",k,k,0.3395700454711914,1,True,True,True,1,False
197,1,"{'probs': (0.9, 0.1), 'actions': ['l', 'k']}",l,l,0.5327761173248291,0,True,True,True,1,False
198,1,"{'probs': (0.9, 0.1), 'actions': ['l', 'k']}",k,k,0.4555850028991699,1,True,True,True,1,False
199,1,"{'probs': (0.9, 0.1), 'actions': ['l', 'k']}",k,k,0.48081493377685547,1,True,True,True,1,False
200,0,"{'probs': (0.9, 0.1), 'actions': ['l', 'k']}",l,l,0.43330907821655273,0,True,True,True,1,False
201,0,"{'probs': (0.9, 0.1), 'actions': ['l', 'k']}",l,h,0.43265509605407715,0,False,False,True,0,True
202,1,"{'probs': (0.9, 0.1), 'actions': ['l', 'k']}",l,l,0.4764270782470703,0,True,True,True,1,True
203,1,"{'probs': (0.9, 0.1), 'actions': ['l', 'k']}",k,k,0.4376389980316162,1,True,True,True,1,False
204,1,"{'probs': (0.9, 0.1), 'actions': ['l', 'k']}",k,k,0.507871150970459,1,True,True,True,1,False
205,1,"{'probs': (0.9, 0.1), 'actions': ['l', 'k']}",l,l,0.5490529537200928,0,True,True,True,1,False
206,1,"{'probs': (0.9, 0.1), 'actions': ['l', 'k']}",l,l,0.5203981399536133,0,True,True,True,1,False
207,1,"{'probs': (0.9, 0.1), 'actions': ['l', 'k']}",k,k,0.4427459239959717,1,True,True,True,1,False
208,1,"{'probs': (0.9, 0.1), 'actions': ['l', 'k']}",k,k,0.5287070274353027,1,True,True,True,1,False
209,0,"{'probs': (0.9, 0.1), 'actions': ['h', 'j']}",j,k,0.4469139575958252,1,False,False,True,1,False
210,1,"{'probs': (0.9, 0.1), 'actions': ['h', 'j']}",j,j,0.4386179447174072,1,True,True,True,0,True
211,1,"{'probs': (0.9, 0.1), 'actions': ['h', 'j']}",h,h,0.6002697944641113,0,True,True,True,0,False
212,1,"{'probs': (0.9, 0.1), 'actions': ['h', 'j']}",h,h,0.5311148166656494,0,True,True,True,0,False
213,1,"{'probs': (0.9, 0.1), 'actions': ['h', 'j']}",j,j,0.39443206787109375,1,True,True,True,0,False
214,1,"{'probs': (0.9, 0.1), 'actions': ['h', 'j']}",j,j,0.6444668769836426,1,True,True,True,0,False
215,1,"{'probs': (0.9, 0.1), 'actions': ['h', 'j']}",j,j,0.4769630432128906,1,True,True,True,0,False
216,1,"{'probs': (0.9, 0.1), 'actions': ['h', 'j']}",h,h,0.42535400390625,0,True,True,True,0,False
217,1,"{'probs': (0.9, 0.1), 'actions': ['h', 'j']}",j,j,0.4650850296020508,1,True,True,True,0,False
218,1,"{'probs': (0.9, 0.1), 'actions': ['h', 'j']}",h,h,0.38265204429626465,0,True,True,True,0,False
219,1,"{'probs': (0.9, 0.1), 'actions': ['h', 'j']}",j,j,0.37236690521240234,1,True,True,True,0,False
220,1,"{'probs': (0.9, 0.1), 'actions': ['h', 'j']}",h,h,0.470933198928833,0,True,True,True,0,False
221,0,"{'probs': (0.9, 0.1), 'actions': ['h', 'j']}",h,j,0.430034875869751,0,False,True,False,0,False
222,1,"{'probs': (0.9, 0.1), 'actions': ['h', 'j']}",h,h,0.4843897819519043,0,True,True,True,0,False
223,1,"{'probs': (0.9, 0.1), 'actions': ['h', 'j']}",j,j,0.5162601470947266,1,True,True,True,0,False
224,0,"{'probs': (0.9, 0.1), 'actions': ['h', 'j']}",j,j,0.5929980278015137,1,True,True,True,0,False
225,1,"{'probs': (0.9, 0.1), 'actions': ['l', 'k']}",l,l,0.3816359043121338,0,True,True,True,1,True
226,0,"{'probs': (0.9, 0.1), 'actions': ['l', 'k']}",k,k,0.41204094886779785,1,True,True,True,1,False
227,0,"{'probs': (0.9, 0.1), 'actions': ['l', 'k']}",l,h,0.587899923324585,0,False,False,True,0,True
228,1,"{'probs': (0.9, 0.1), 'actions': ['l', 'k']}",l,l,0.4300670623779297,0,True,True,True,1,True
229,1,"{'probs': (0.9, 0.1), 'actions': ['l', 'k']}",k,k,0.4063260555267334,1,True,True,True,1,False
230,1,"{'probs': (0.9, 0.1), 'actions': ['l', 'k']}",k,k,0.46869397163391113,1,True,True,True,1,False
231,1,"{'probs': (0.9, 0.1), 'actions': ['l', 'k']}",l,l,0.4467329978942871,0,True,True,True,1,False
232,1,"{'probs': (0.9, 0.1), 'actions': ['l', 'k']}",l,l,0.7291789054870605,0,True,True,True,1,False
233,0,"{'probs': (0.9, 0.1), 'actions': ['l', 'k']}",k,k,0.5437839031219482,1,True,True,True,1,False
234,0,"{'probs': (0.9, 0.1), 'actions': ['l', 'k']}",l,l,0.5647439956665039,0,True,True,True,1,False
235,1,"{'probs': (0.9, 0.1), 'actions': ['l', 'k']}",k,k,0.6486151218414307,1,True,True,True,1,False
236,1,"{'probs': (0.9, 0.1), 'actions': ['l', 'k']}",l,l,0.41420888900756836,0,True,True,True,1,False
237,1,"{'probs': (0.9, 0.1), 'actions': ['l', 'k']}",l,l,0.6266100406646729,0,True,True,True,1,False
238,1,"{'probs': (0.9, 0.1), 'actions': ['l', 'k']}",l,l,0.4558570384979248,0,True,True,True,1,False
239,1,"{'probs': (0.9, 0.1), 'actions': ['l', 'k']}",k,k,0.42331385612487793,1,True,True,True,1,False
240,1,"{'probs': (0.9, 0.1), 'actions': ['l', 'k']}",k,k,0.7159368991851807,1,True,True,True,1,False
241,1,"{'probs': (0.9, 0.1), 'actions': ['h', 'j']}",h,l,0.3923909664154053,0,False,False,True,1,False
242,0,"{'probs': (0.9, 0.1), 'actions': ['h', 'j']}",h,l,0.4674859046936035,0,False,False,True,1,False
243,1,"{'probs': (0.9, 0.1), 'actions': ['h', 'j']}",h,h,0.46062207221984863,0,True,True,True,0,True
244,1,"{'probs': (0.9, 0.1), 'actions': ['h', 'j']}",j,j,0.4603438377380371,1,True,True,True,0,False
245,0,"{'probs': (0.9, 0.1), 'actions': ['h', 'j']}",j,h,0.45338892936706543,1,False,True,False,0,False
246,1,"{'probs': (0.9, 0.1), 'actions': ['h', 'j']}",j,j,0.43448305130004883,1,True,True,True,0,False
247,1,"{'probs': (0.9, 0.1), 'actions': ['h', 'j']}",h,h,0.4442260265350342,0,True,True,True,0,False
248,1,"{'probs': (0.9, 0.1), 'actions': ['h', 'j']}",j,j,0.3678419589996338,1,True,True,True,0,False
249,1,"{'probs': (0.9, 0.1), 'actions': ['h', 'j']}",h,h,0.452970027923584,0,True,True,True,0,False
250,0,"{'probs': (0.9, 0.1), 'actions': ['h', 'j']}",j,j,0.37163400650024414,1,True,True,True,0,False
251,0,"{'probs': (0.9, 0.1), 'actions': ['h', 'j']}",h,l,0.3854949474334717,0,False,False,True,1,True
252,1,"{'probs': (0.9, 0.1), 'actions': ['h', 'j']}",j,j,0.4062459468841553,1,True,True,True,0,True
253,1,"{'probs': (0.9, 0.1), 'actions': ['h', 'j']}",j,j,0.5049300193786621,1,True,True,True,0,False
254,1,"{'probs': (0.9, 0.1), 'actions': ['h', 'j']}",j,j,0.586143970489502,1,True,True,True,0,False
255,1,"{'probs': (0.9, 0.1), 'actions': ['h', 'j']}",h,h,0.562950849533081,0,True,True,True,0,False
256,1,"{'probs': (0.9, 0.1), 'actions': ['h', 'j']}",j,j,0.45487284660339355,1,True,True,True,0,False
257,0,"{'probs': (0.9, 0.1), 'actions': ['l', 'k']}",l,h,0.5459609031677246,0,False,False,True,0,False
258,1,"{'probs': (0.9, 0.1), 'actions': ['l', 'k']}",k,k,0.5343520641326904,1,True,True,True,1,True
259,1,"{'probs': (0.9, 0.1), 'actions': ['l', 'k']}",k,k,0.5760869979858398,1,True,True,True,1,False
260,1,"{'probs': (0.9, 0.1), 'actions': ['l', 'k']}",l,l,0.45632386207580566,0,True,True,True,1,False
261,0,"{'probs': (0.9, 0.1), 'actions': ['l', 'k']}",l,l,0.507969856262207,0,True,True,True,1,False
262,0,"{'probs': (0.9, 0.1), 'actions': ['l', 'k']}",l,h,0.4989950656890869,0,False,False,True,0,True
263,1,"{'probs': (0.9, 0.1), 'actions': ['l', 'k']}",k,k,0.5742149353027344,1,True,True,True,1,True
264,1,"{'probs': (0.9, 0.1), 'actions': ['l', 'k']}",k,k,0.641185998916626,1,True,True,True,1,False
265,1,"{'probs': (0.9, 0.1), 'actions': ['l', 'k']}",l,l,0.5538110733032227,0,True,True,True,1,False
266,1,"{'probs': (0.9, 0.1), 'actions': ['l', 'k']}",k,k,0.4387218952178955,1,True,True,True,1,False
267,0,"{'probs': (0.9, 0.1), 'actions': ['l', 'k']}",l,h,0.5552310943603516,0,False,False,True,0,True
268,0,"{'probs': (0.9, 0.1), 'actions': ['l', 'k']}",l,h,0.6027531623840332,0,False,False,True,0,False
269,1,"{'probs': (0.9, 0.1), 'actions': ['l', 'k']}",k,k,0.6177670955657959,1,True,True,True,1,True
270,1,"{'probs': (0.9, 0.1), 'actions': ['l', 'k']}",k,k,0.6258220672607422,1,True,True,True,1,False
271,1,"{'probs': (0.9, 0.1), 'actions': ['l', 'k']}",k,k,0.5244870185852051,1,True,True,True,1,False
272,1,"{'probs': (0.9, 0.1), 'actions': ['l', 'k']}",l,l,0.5634129047393799,0,True,True,True,1,False
273,0,"{'probs': (0.9, 0.1), 'actions': ['h', 'j']}",h,l,0.4663550853729248,0,False,False,True,1,False
274,1,"{'probs': (0.9, 0.1), 'actions': ['h', 'j']}",h,h,0.4870870113372803,0,True,True,True,0,True
275,1,"{'probs': (0.9, 0.1), 'actions': ['h', 'j']}",j,j,0.630241870880127,1,True,True,True,0,False
276,1,"{'probs': (0.9, 0.1), 'actions': ['h', 'j']}",j,j,0.4619729518890381,1,True,True,True,0,False
277,1,"{'probs': (0.9, 0.1), 'actions': ['h', 'j']}",h,h,0.41716694831848145,0,True,True,True,0,False
278,0,"{'probs': (0.9, 0.1), 'actions': ['h', 'j']}",j,j,0.5124869346618652,1,True,True,True,0,False
279,0,"{'probs': (0.9, 0.1), 'actions': ['h', 'j']}",h,l,0.49692487716674805,0,False,False,True,1,True
280,0,"{'probs': (0.9, 0.1), 'actions': ['h', 'j']}",j,k,0.6777057647705078,1,False,False,True,1,False
281,1,"{'probs': (0.9, 0.1), 'actions': ['h', 'j']}",j,j,0.542680025100708,1,True,True,True,0,True
282,1,"{'probs': (0.9, 0.1), 'actions': ['h', 'j']}",h,h,0.4521448612213135,0,True,True,True,0,False
283,1,"{'probs': (0.9, 0.1), 'actions': ['h', 'j']}",h,h,0.38944292068481445,0,True,True,True,0,False
284,1,"{'probs': (0.9, 0.1), 'actions': ['h', 'j']}",j,j,0.4455740451812744,1,True,True,True,0,False
285,1,"{'probs': (0.9, 0.1), 'actions': ['h', 'j']}",h,h,0.4459810256958008,0,True,True,True,0,False
286,1,"{'probs': (0.9, 0.1), 'actions': ['h', 'j']}",j,j,0.3907310962677002,1,True,True,True,0,False
287,0,"{'probs': (0.9, 0.1), 'actions': ['h', 'j']}",h,h,0.5410587787628174,0,True,True,True,0,False
288,0,"{'probs': (0.9, 0.1), 'actions': ['h', 'j']}",j,k,0.5004019737243652,1,False,False,True,1,True
289,0,"{'probs': (0.9, 0.1), 'actions': ['l', 'k']}",l,h,0.5359389781951904,0,False,False,True,0,True
290,0,"{'probs': (0.9, 0.1), 'actions': ['l', 'k']}",l,l,0.5871779918670654,0,True,True,True,1,True
291,1,"{'probs': (0.9, 0.1), 'actions': ['l', 'k']}",k,k,0.4935479164123535,1,True,True,True,1,False
292,1,"{'probs': (0.9, 0.1), 'actions': ['l', 'k']}",l,l,0.6267530918121338,0,True,True,True,1,False
293,1,"{'probs': (0.9, 0.1), 'actions': ['l', 'k']}",l,l,0.47237396240234375,0,True,True,True,1,False
294,1,"{'probs': (0.9, 0.1), 'actions': ['l', 'k']}",l,l,0.4476199150085449,0,True,True,True,1,False
295,1,"{'probs': (0.9, 0.1), 'actions': ['l', 'k']}",k,k,0.4288818836212158,1,True,True,True,1,False
296,0,"{'probs': (0.9, 0.1), 'actions': ['l', 'k']}",k,j,0.5403690338134766,1,False,False,True,0,True
297,1,"{'probs': (0.9, 0.1), 'actions': ['l', 'k']}",l,l,0.5961971282958984,0,True,True,True,1,True
298,1,"{'probs': (0.9, 0.1), 'actions': ['l', 'k']}",l,l,0.5201561450958252,0,True,True,True,1,False
299,0,"{'probs': (0.9, 0.1), 'actions': ['l', 'k']}",l,l,0.5006060600280762,0,True,True,True,1,False
300,0,"{'probs': (0.9, 0.1), 'actions': ['l', 'k']}",k,j,0.5957698822021484,1,False,False,True,0,True
301,1,"{'probs': (0.9, 0.1), 'actions': ['l', 'k']}",l,l,0.5297410488128662,0,True,True,True,1,True
302,1,"{'probs': (0.9, 0.1), 'actions': ['l', 'k']}",k,k,0.47709202766418457,1,True,True,True,1,False
303,1,"{'probs': (0.9, 0.1), 'actions': ['l', 'k']}",k,k,0.46050286293029785,1,True,True,True,1,False
304,0,"{'probs': (0.9, 0.1), 'actions': ['l', 'k']}",k,j,0.4602539539337158,1,False,False,True,0,True
305,0,"{'probs': (0.9, 0.1), 'actions': ['h', 'j']}",j,k,0.4848170280456543,1,False,False,True,1,True
306,1,"{'probs': (0.9, 0.1), 'actions': ['h', 'j']}",h,h,0.37773704528808594,0,True,True,True,0,True
307,1,"{'probs': (0.9, 0.1), 'actions': ['h', 'j']}",j,j,0.3686389923095703,1,True,True,True,0,False
308,1,"{'probs': (0.9, 0.1), 'actions': ['h', 'j']}",h,h,0.538856029510498,0,True,True,True,0,False
309,1,"{'probs': (0.9, 0.1), 'actions': ['h', 'j']}",j,j,0.34875988960266113,1,True,True,True,0,False
310,1,"{'probs': (0.9, 0.1), 'actions': ['h', 'j']}",h,h,0.3018949031829834,0,True,True,True,0,False
311,1,"{'probs': (0.9, 0.1), 'actions': ['h', 'j']}",j,j,0.4064469337463379,1,True,True,True,0,False
312,1,"{'probs': (0.9, 0.1), 'actions': ['h', 'j']}",h,h,0.43668103218078613,0,True,True,True,0,False
313,1,"{'probs': (0.9, 0.1), 'actions': ['h', 'j']}",j,j,0.3928680419921875,1,True,True,True,0,False
314,1,"{'probs': (0.9, 0.1), 'actions': ['h', 'j']}",h,h,0.36269593238830566,0,True,True,True,0,False
315,1,"{'probs': (0.9, 0.1), 'actions': ['h', 'j']}",j,j,0.3215630054473877,1,True,True,True,0,False
316,1,"{'probs': (0.9, 0.1), 'actions': ['h', 'j']}",h,h,0.3647730350494385,0,True,True,True,0,False
317,0,"{'probs': (0.9, 0.1), 'actions': ['h', 'j']}",h,l,0.4976341724395752,0,False,False,True,1,True
318,0,"{'probs': (0.9, 0.1), 'actions': ['h', 'j']}",h,h,0.5017948150634766,0,True,True,True,0,True
319,0,"{'probs': (0.9, 0.1), 'actions': ['h', 'j']}",j,k,0.5378007888793945,1,False,False,True,1,True
320,1,"{'probs': (0.9, 0.1), 'actions': ['h', 'j']}",h,h,0.5863809585571289,0,True,True,True,0,True
321,1,"{'probs': (0.9, 0.1), 'actions': ['l', 'k']}",k,j,0.48815488815307617,1,False,False,True,0,False
322,0,"{'probs': (0.9, 0.1), 'actions': ['l', 'k']}",k,j,0.4275350570678711,1,False,False,True,0,False
323,1,"{'probs': (0.9, 0.1), 'actions': ['l', 'k']}",l,h,0.9015071392059326,0,False,False,True,0,False
324,0,"{'probs': (0.9, 0.1), 'actions': ['l', 'k']}",l,h,0.5779659748077393,0,False,False,True,0,False
325,1,"{'probs': (0.9, 0.1), 'actions': ['l', 'k']}",l,l,0.4374210834503174,0,True,True,True,1,True
326,1,"{'probs': (0.9, 0.1), 'actions': ['l', 'k']}",k,k,0.3747711181640625,1,True,True,True,1,False
327,1,"{'probs': (0.9, 0.1), 'actions': ['l', 'k']}",l,l,0.34673309326171875,0,True,True,True,1,False
328,0,"{'probs': (0.9, 0.1), 'actions': ['l', 'k']}",k,j,0.5322251319885254,1,False,False,True,0,True
329,1,"{'probs': (0.9, 0.1), 'actions': ['l', 'k']}",k,k,0.5489480495452881,1,True,True,True,1,True
330,1,"{'probs': (0.9, 0.1), 'actions': ['l', 'k']}",l,l,0.45148396492004395,0,True,True,True,1,False
331,1,"{'probs': (0.9, 0.1), 'actions': ['l', 'k']}",k,k,0.37342095375061035,1,True,True,True,1,False
332,1,"{'probs': (0.9, 0.1), 'actions': ['l', 'k']}",k,k,0.43613290786743164,1,True,True,True,1,False
333,1,"{'probs': (0.9, 0.1), 'actions': ['l', 'k']}",l,l,0.38301897048950195,0,True,True,True,1,False
334,1,"{'probs': (0.9, 0.1), 'actions': ['l', 'k']}",l,l,0.46137499809265137,0,True,True,True,1,False
335,1,"{'probs': (0.9, 0.1), 'actions': ['l', 'k']}",l,k,0.44787120819091797,0,False,True,False,1,False
336,1,"{'probs': (0.9, 0.1), 'actions': ['l', 'k']}",l,l,0.4613640308380127,0,True,True,True,1,False
337,0,"{'probs': (0.9, 0.1), 'actions': ['h', 'j']}",j,k,0.5044620037078857,1,False,False,True,1,False
338,0,"{'probs': (0.9, 0.1), 'actions': ['h', 'j']}",h,h,0.5626180171966553,0,True,True,True,0,True
339,1,"{'probs': (0.9, 0.1), 'actions': ['h', 'j']}",j,j,0.4619300365447998,1,True,True,True,0,False
340,1,"{'probs': (0.9, 0.1), 'actions': ['h', 'j']}",h,l,0.48714494705200195,0,False,False,True,1,True
341,0,"{'probs': (0.9, 0.1), 'actions': ['h', 'j']}",j,l,0.31574106216430664,1,False,False,False,1,False
342,0,"{'probs': (0.9, 0.1), 'actions': ['h', 'j']}",j,k,0.5629348754882812,1,False,False,True,1,False
343,1,"{'probs': (0.9, 0.1), 'actions': ['h', 'j']}",j,j,0.4861409664154053,1,True,True,True,0,True
344,0,"{'probs': (0.9, 0.1), 'actions': ['h', 'j']}",h,j,0.3328869342803955,0,False,True,False,0,False
345,1,"{'probs': (0.9, 0.1), 'actions': ['h', 'j']}",h,h,0.4546630382537842,0,True,True,True,0,False
346,0,"{'probs': (0.9, 0.1), 'actions': ['h', 'j']}",j,j,0.5178189277648926,1,True,True,True,0,False
347,0,"{'probs': (0.9, 0.1), 'actions': ['h', 'j']}",j,k,0.47916507720947266,1,False,False,True,1,True
348,0,"{'probs': (0.9, 0.1), 'actions': ['h', 'j']}",h,l,0.5209150314331055,0,False,False,True,1,False
349,1,"{'probs': (0.9, 0.1), 'actions': ['h', 'j']}",h,h,0.4258840084075928,0,True,True,True,0,True
350,0,"{'probs': (0.9, 0.1), 'actions': ['h', 'j']}",h,h,0.5254318714141846,0,True,True,True,0,False
351,1,"{'probs': (0.9, 0.1), 'actions': ['h', 'j']}",j,j,0.4473438262939453,1,True,True,True,0,False
352,1,"{'probs': (0.9, 0.1), 'actions': ['h', 'j']}",h,h,0.6538949012756348,0,True,True,True,0,False
353,0,"{'probs': (0.9, 0.1), 'actions': ['l', 'k']}",k,j,0.5219640731811523,1,False,False,True,0,False
354,1,"{'probs': (0.9, 0.1), 'actions': ['l', 'k']}",k,k,0.44960999488830566,1,True,True,True,1,True
355,1,"{'probs': (0.9, 0.1), 'actions': ['l', 'k']}",k,k,0.4698660373687744,1,True,True,True,1,False
356,1,"{'probs': (0.9, 0.1), 'actions': ['l', 'k']}",l,l,0.48238515853881836,0,True,True,True,1,False
357,0,"{'probs': (0.9, 0.1), 'actions': ['l', 'k']}",l,l,0.4631969928741455,0,True,True,True,1,False
358,0,"{'probs': (0.9, 0.1), 'actions': ['l', 'k']}",l,h,0.690342903137207,0,False,False,True,0,True
359,0,"{'probs': (0.9, 0.1), 'actions': ['l', 'k']}",k,j,0.6675639152526855,1,False,False,True,0,False
360,1,"{'probs': (0.9, 0.1), 'actions': ['l', 'k']}",k,k,0.49695897102355957,1,True,True,True,1,True
361,1,"{'probs': (0.9, 0.1), 'actions': ['l', 'k']}",l,l,0.483320951461792,0,True,True,True,1,False
362,1,"{'probs': (0.9, 0.1), 'actions': ['l', 'k']}",k,k,0.565546989440918,1,True,True,True,1,False
363,1,"{'probs': (0.9, 0.1), 'actions': ['l', 'k']}",k,k,0.4661719799041748,1,True,True,True,1,False
364,1,"{'probs': (0.9, 0.1), 'actions': ['l', 'k']}",l,l,0.46927380561828613,0,True,True,True,1,False
365,1,"{'probs': (0.9, 0.1), 'actions': ['l', 'k']}",k,k,0.4531710147857666,1,True,True,True,1,False
366,1,"{'probs': (0.9, 0.1), 'actions': ['l', 'k']}",l,l,0.4025709629058838,0,True,True,True,1,False
367,1,"{'probs': (0.9, 0.1), 'actions': ['l', 'k']}",l,l,0.5950069427490234,0,True,True,True,1,False
368,1,"{'probs': (0.9, 0.1), 'actions': ['l', 'k']}",k,k,0.46162986755371094,1,True,True,True,1,False
369,0,"{'probs': (0.9, 0.1), 'actions': ['h', 'j']}",j,k,0.6317009925842285,1,False,False,True,1,False
370,1,"{'probs': (0.9, 0.1), 'actions': ['h', 'j']}",h,h,0.43533992767333984,0,True,True,True,0,True
371,1,"{'probs': (0.9, 0.1), 'actions': ['h', 'j']}",j,j,0.6705899238586426,1,True,True,True,0,False
372,1,"{'probs': (0.9, 0.1), 'actions': ['h', 'j']}",j,j,0.6064460277557373,1,True,True,True,0,False
373,0,"{'probs': (0.9, 0.1), 'actions': ['h', 'j']}",j,j,0.546018123626709,1,True,True,True,0,False
374,0,"{'probs': (0.9, 0.1), 'actions': ['h', 'j']}",h,l,0.584597110748291,0,False,False,True,1,True
375,0,"{'probs': (0.9, 0.1), 'actions': ['h', 'j']}",h,l,0.47981715202331543,0,False,False,True,1,False
376,1,"{'probs': (0.9, 0.1), 'actions': ['h', 'j']}",j,j,0.35489678382873535,1,True,True,True,0,True
377,1,"{'probs': (0.9, 0.1), 'actions': ['h', 'j']}",h,h,0.407243013381958,0,True,True,True,0,False
378,1,"{'probs': (0.9, 0.1), 'actions': ['h', 'j']}",h,h,0.41814088821411133,0,True,True,True,0,False
379,1,"{'probs': (0.9, 0.1), 'actions': ['h', 'j']}",h,h,0.44931697845458984,0,True,True,True,0,False
380,1,"{'probs': (0.9, 0.1), 'actions': ['h', 'j']}",j,j,0.42267704010009766,1,True,True,True,0,False
381,1,"{'probs': (0.9, 0.1), 'actions': ['h', 'j']}",h,h,0.43205881118774414,0,True,True,True,0,False
382,1,"{'probs': (0.9, 0.1), 'actions': ['h', 'j']}",h,h,0.4752810001373291,0,True,True,True,0,False
383,0,"{'probs': (0.9, 0.1), 'actions': ['h', 'j']}",j,j,0.42130517959594727,1,True,True,True,0,False
384,1,"{'probs': (0.9, 0.1), 'actions': ['h', 'j']}",j,j,0.4105870723724365,1,True,True,True,0,False
385,0,"{'probs': (0.9, 0.1), 'actions': ['l', 'k']}",l,j,0.3804008960723877,0,False,False,False,0,False
386,0,"{'probs': (0.9, 0.1), 'actions': ['l', 'k']}",k,j,0.5318398475646973,1,False,False,True,0,False
387,0,"{'probs': (0.9, 0.1), 'actions': ['l', 'k']}",k,j,0.3805241584777832,1,False,False,True,0,False
388,1,"{'probs': (0.9, 0.1), 'actions': ['l', 'k']}",l,l,0.6027669906616211,0,True,True,True,1,True
389,0,"{'probs': (0.9, 0.1), 'actions': ['l', 'k']}",k,j,0.709320068359375,1,False,False,True,0,True
390,1,"{'probs': (0.9, 0.1), 'actions': ['l', 'k']}",l,l,0.46946001052856445,0,True,True,True,1,True
391,1,"{'probs': (0.9, 0.1), 'actions': ['l', 'k']}",k,k,0.4233279228210449,1,True,True,True,1,False
392,1,"{'probs': (0.9, 0.1), 'actions': ['l', 'k']}",k,k,0.6038367748260498,1,True,True,True,1,False
393,1,"{'probs': (0.9, 0.1), 'actions': ['l', 'k']}",l,l,0.3884298801422119,0,True,True,True,1,False
394,1,"{'probs': (0.9, 0.1), 'actions': ['l', 'k']}",k,k,0.3735239505767822,1,True,True,True,1,False
395,0,"{'probs': (0.9, 0.1), 'actions': ['l', 'k']}",l,l,0.37709808349609375,0,True,True,True,1,False
396,0,"{'probs': (0.9, 0.1), 'actions': ['l', 'k']}",l,h,0.4058048725128174,0,False,False,True,0,True
397,1,"{'probs': (0.9, 0.1), 'actions': ['l', 'k']}",k,k,0.6836979389190674,1,True,True,True,1,True
398,1,"{'probs': (0.9, 0.1), 'actions': ['l', 'k']}",k,k,0.49221110343933105,1,True,True,True,1,False
399,1,"{'probs': (0.9, 0.1), 'actions': ['l', 'k']}",l,l,0.35369205474853516,0,True,True,True,1,False
400,0,"{'probs': (0.9, 0.1), 'actions': ['l', 'k']}",l,l,0.4016149044036865,0,True,True,True,1,False
401,1,"{'probs': (0.9, 0.1), 'actions': ['h', 'j']}",h,h,0.4828050136566162,0,True,True,True,0,True
402,1,"{'probs': (0.9, 0.1), 'actions': ['h', 'j']}",j,j,0.46138691902160645,1,True,True,True,0,False
403,1,"{'probs': (0.9, 0.1), 'actions': ['h', 'j']}",h,h,0.39725184440612793,0,True,True,True,0,False
404,1,"{'probs': (0.9, 0.1), 'actions': ['h', 'j']}",j,j,0.4226570129394531,1,True,True,True,0,False
405,1,"{'probs': (0.9, 0.1), 'actions': ['h', 'j']}",h,h,0.4297358989715576,0,True,True,True,0,False
406,1,"{'probs': (0.9, 0.1), 'actions': ['h', 'j']}",h,h,0.45909905433654785,0,True,True,True,0,False
407,1,"{'probs': (0.9, 0.1), 'actions': ['h', 'j']}",j,j,0.529731035232544,1,True,True,True,0,False
408,0,"{'probs': (0.9, 0.1), 'actions': ['h', 'j']}",h,h,0.41572093963623047,0,True,True,True,0,False
409,1,"{'probs': (0.9, 0.1), 'actions': ['h', 'j']}",j,j,0.5461199283599854,1,True,True,True,0,False
410,1,"{'probs': (0.9, 0.1), 'actions': ['h', 'j']}",h,h,0.3987250328063965,0,True,True,True,0,False
411,1,"{'probs': (0.9, 0.1), 'actions': ['h', 'j']}",j,j,0.36888790130615234,1,True,True,True,0,False
412,1,"{'probs': (0.9, 0.1), 'actions': ['h', 'j']}",h,h,0.314251184463501,0,True,True,True,0,False
413,1,"{'probs': (0.9, 0.1), 'actions': ['h', 'j']}",j,j,0.3409299850463867,1,True,True,True,0,False
414,1,"{'probs': (0.9, 0.1), 'actions': ['h', 'j']}",h,h,0.3154299259185791,0,True,True,True,0,False
415,0,"{'probs': (0.9, 0.1), 'actions': ['h', 'j']}",j,j,0.40453195571899414,1,True,True,True,0,False
416,1,"{'probs': (0.9, 0.1), 'actions': ['h', 'j']}",h,h,0.6800029277801514,0,True,True,True,0,False
417,0,"{'probs': (0.9, 0.1), 'actions': ['l', 'k']}",l,h,0.4718129634857178,0,False,False,True,0,False
418,1,"{'probs': (0.9, 0.1), 'actions': ['l', 'k']}",l,l,0.5685460567474365,0,True,True,True,1,True
419,0,"{'probs': (0.9, 0.1), 'actions': ['l', 'k']}",k,k,0.4141700267791748,1,True,True,True,1,False
420,0,"{'probs': (0.9, 0.1), 'actions': ['l', 'k']}",k,j,0.6256539821624756,1,False,False,True,0,True
421,1,"{'probs': (0.9, 0.1), 'actions': ['l', 'k']}",l,l,0.46229982376098633,0,True,True,True,1,True
422,1,"{'probs': (0.9, 0.1), 'actions': ['l', 'k']}",l,l,0.550584077835083,0,True,True,True,1,False
423,0,"{'probs': (0.9, 0.1), 'actions': ['l', 'k']}",l,l,0.46602392196655273,0,True,True,True,1,False
424,1,"{'probs': (0.9, 0.1), 'actions': ['l', 'k']}",k,k,0.5888609886169434,1,True,True,True,1,False
425,1,"{'probs': (0.9, 0.1), 'actions': ['l', 'k']}",l,l,0.4297220706939697,0,True,True,True,1,False
426,1,"{'probs': (0.9, 0.1), 'actions': ['l', 'k']}",k,k,0.6375470161437988,1,True,True,True,1,False
427,1,"{'probs': (0.9, 0.1), 'actions': ['l', 'k']}",l,l,0.4506800174713135,0,True,True,True,1,False
428,1,"{'probs': (0.9, 0.1), 'actions': ['l', 'k']}",k,k,0.473721981048584,1,True,True,True,1,False
429,1,"{'probs': (0.9, 0.1), 'actions': ['l', 'k']}",l,l,0.40146303176879883,0,True,True,True,1,False
430,1,"{'probs': (0.9, 0.1), 'actions': ['l', 'k']}",k,k,0.4658339023590088,1,True,True,True,1,False
431,1,"{'probs': (0.9, 0.1), 'actions': ['l', 'k']}",k,k,0.49550509452819824,1,True,True,True,1,False
432,1,"{'probs': (0.9, 0.1), 'actions': ['l', 'k']}",k,k,0.4488229751586914,1,True,True,True,1,False
433,1,"{'probs': (0.9, 0.1), 'actions': ['h', 'j']}",j,k,0.4804069995880127,1,False,False,True,1,False
434,0,"{'probs': (0.9, 0.1), 'actions': ['h', 'j']}",j,k,0.4185309410095215,1,False,False,True,1,False
435,0,"{'probs': (0.9, 0.1), 'actions': ['h', 'j']}",h,j,0.4204990863800049,0,False,True,False,0,True
436,1,"{'probs': (0.9, 0.1), 'actions': ['h', 'j']}",h,h,0.4655270576477051,0,True,True,True,0,False
437,1,"{'probs': (0.9, 0.1), 'actions': ['h', 'j']}",j,j,0.3992640972137451,1,True,True,True,0,False
438,1,"{'probs': (0.9, 0.1), 'actions': ['h', 'j']}",h,h,0.3350541591644287,0,True,True,True,0,False
439,1,"{'probs': (0.9, 0.1), 'actions': ['h', 'j']}",j,j,0.4128870964050293,1,True,True,True,0,False
440,1,"{'probs': (0.9, 0.1), 'actions': ['h', 'j']}",j,j,0.4624030590057373,1,True,True,True,0,False
441,1,"{'probs': (0.9, 0.1), 'actions': ['h', 'j']}",j,j,0.41891908645629883,1,True,True,True,0,False
442,1,"{'probs': (0.9, 0.1), 'actions': ['h', 'j']}",h,h,0.35489821434020996,0,True,True,True,0,False
443,1,"{'probs': (0.9, 0.1), 'actions': ['h', 'j']}",j,j,0.41408300399780273,1,True,True,True,0,False
444,0,"{'probs': (0.9, 0.1), 'actions': ['h', 'j']}",j,j,0.46607208251953125,1,True,True,True,0,False
445,1,"{'probs': (0.9, 0.1), 'actions': ['h', 'j']}",j,j,0.5425701141357422,1,True,True,True,0,False
446,1,"{'probs': (0.9, 0.1), 'actions': ['h', 'j']}",h,h,0.48470401763916016,0,True,True,True,0,False
447,1,"{'probs': (0.9, 0.1), 'actions': ['h', 'j']}",h,h,0.5018670558929443,0,True,True,True,0,False
448,1,"{'probs': (0.9, 0.1), 'actions': ['h', 'j']}",h,h,0.400482177734375,0,True,True,True,0,False
449,0,"{'probs': (0.9, 0.1), 'actions': ['l', 'k']}",k,j,0.5267608165740967,1,False,False,True,0,False
450,1,"{'probs': (0.9, 0.1), 'actions': ['l', 'k']}",l,l,0.6724519729614258,0,True,True,True,1,True
451,1,"{'probs': (0.9, 0.1), 'actions': ['l', 'k']}",k,k,0.5312180519104004,1,True,True,True,1,False
452,1,"{'probs': (0.9, 0.1), 'actions': ['l', 'k']}",l,l,0.4066910743713379,0,True,True,True,1,False
453,1,"{'probs': (0.9, 0.1), 'actions': ['l', 'k']}",l,l,0.38420796394348145,0,True,True,True,1,False
454,1,"{'probs': (0.9, 0.1), 'actions': ['l', 'k']}",k,k,0.5265510082244873,1,True,True,True,1,False
455,1,"{'probs': (0.9, 0.1), 'actions': ['l', 'k']}",k,k,0.48665785789489746,1,True,True,True,1,False
456,0,"{'probs': (0.9, 0.1), 'actions': ['l', 'k']}",l,l,0.3940310478210449,0,True,True,True,1,False
457,1,"{'probs': (0.9, 0.1), 'actions': ['l', 'k']}",l,l,0.6232888698577881,0,True,True,True,1,False
458,1,"{'probs': (0.9, 0.1), 'actions': ['l', 'k']}",k,k,0.4762539863586426,1,True,True,True,1,False
459,1,"{'probs': (0.9, 0.1), 'actions': ['l', 'k']}",l,l,0.31493091583251953,0,True,True,True,1,False
460,1,"{'probs': (0.9, 0.1), 'actions': ['l', 'k']}",l,l,0.5696589946746826,0,True,True,True,1,False
461,1,"{'probs': (0.9, 0.1), 'actions': ['l', 'k']}",l,l,0.40776801109313965,0,True,True,True,1,False
462,1,"{'probs': (0.9, 0.1), 'actions': ['l', 'k']}",k,k,0.40967392921447754,1,True,True,True,1,False
463,1,"{'probs': (0.9, 0.1), 'actions': ['l', 'k']}",k,k,0.384113073348999,1,True,True,True,1,False
464,0,"{'probs': (0.9, 0.1), 'actions': ['l', 'k']}",l,l,0.46831798553466797,0,True,True,True,1,False
465,0,"{'probs': (0.9, 0.1), 'actions': ['h', 'j']}",h,l,0.6342759132385254,0,False,False,True,1,False
466,0,"{'probs': (0.9, 0.1), 'actions': ['h', 'j']}",j,k,0.8241009712219238,1,False,False,True,1,False
467,1,"{'probs': (0.9, 0.1), 'actions': ['h', 'j']}",h,h,0.6267619132995605,0,True,True,True,0,True
468,1,"{'probs': (0.9, 0.1), 'actions': ['h', 'j']}",j,j,0.44087910652160645,1,True,True,True,0,False
469,1,"{'probs': (0.9, 0.1), 'actions': ['h', 'j']}",h,h,0.35591816902160645,0,True,True,True,0,False
470,1,"{'probs': (0.9, 0.1), 'actions': ['h', 'j']}",j,j,0.33991479873657227,1,True,True,True,0,False
471,1,"{'probs': (0.9, 0.1), 'actions': ['h', 'j']}",j,j,0.43209099769592285,1,True,True,True,0,False
472,1,"{'probs': (0.9, 0.1), 'actions': ['h', 'j']}",h,h,0.383105993270874,0,True,True,True,0,False
473,1,"{'probs': (0.9, 0.1), 'actions': ['h', 'j']}",h,h,0.622189998626709,0,True,True,True,0,False
474,1,"{'probs': (0.9, 0.1), 'actions': ['h', 'j']}",j,j,0.4717600345611572,1,True,True,True,0,False
475,1,"{'probs': (0.9, 0.1), 'actions': ['h', 'j']}",j,j,0.47491979598999023,1,True,True,True,0,False
476,0,"{'probs': (0.9, 0.1), 'actions': ['h', 'j']}",j,j,0.585003137588501,1,True,True,True,0,False
477,0,"{'probs': (0.9, 0.1), 'actions': ['h', 'j']}",h,l,0.52211594581604,0,False,False,True,1,True
478,0,"{'probs': (0.9, 0.1), 'actions': ['h', 'j']}",h,l,0.6994071006774902,0,False,False,True,1,False
479,1,"{'probs': (0.9, 0.1), 'actions': ['h', 'j']}",h,h,0.3712179660797119,0,True,True,True,0,True
480,1,"{'probs': (0.9, 0.1), 'actions': ['h', 'j']}",j,j,0.40305089950561523,1,True,True,True,0,False
481,0,"{'probs': (0.9, 0.1), 'actions': ['l', 'k']}",l,h,0.4062519073486328,0,False,False,True,0,False
482,1,"{'probs': (0.9, 0.1), 'actions': ['l', 'k']}",l,h,0.6638679504394531,0,False,False,True,0,False
483,0,"{'probs': (0.9, 0.1), 'actions': ['l', 'k']}",l,h,0.45628881454467773,0,False,False,True,0,False
484,0,"{'probs': (0.9, 0.1), 'actions': ['l', 'k']}",k,j,0.6758220195770264,1,False,False,True,0,False
485,1,"{'probs': (0.9, 0.1), 'actions': ['l', 'k']}",k,k,0.663964033126831,1,True,True,True,1,True
486,1,"{'probs': (0.9, 0.1), 'actions': ['l', 'k']}",k,k,0.5001308917999268,1,True,True,True,1,False
487,1,"{'probs': (0.9, 0.1), 'actions': ['l', 'k']}",l,l,0.38347792625427246,0,True,True,True,1,False
488,1,"{'probs': (0.9, 0.1), 'actions': ['l', 'k']}",k,k,0.49752092361450195,1,True,True,True,1,False
489,1,"{'probs': (0.9, 0.1), 'actions': ['l', 'k']}",k,k,0.4778318405151367,1,True,True,True,1,False
490,1,"{'probs': (0.9, 0.1), 'actions': ['l', 'k']}",l,l,0.4386570453643799,0,True,True,True,1,False
491,1,"{'probs': (0.9, 0.1), 'actions': ['l', 'k']}",l,l,0.44339895248413086,0,True,True,True,1,False
492,1,"{'probs': (0.9, 0.1), 'actions': ['l', 'k']}",l,l,0.45546817779541016,0,True,True,True,1,False
493,1,"{'probs': (0.9, 0.1), 'actions': ['l', 'k']}",k,k,0.4622621536254883,1,True,True,True,1,False
494,1,"{'probs': (0.9, 0.1), 'actions': ['l', 'k']}",l,l,0.4096071720123291,0,True,True,True,1,False
495,1,"{'probs': (0.9, 0.1), 'actions': ['l', 'k']}",k,k,0.4281198978424072,1,True,True,True,1,False
496,1,"{'probs': (0.9, 0.1), 'actions': ['l', 'k']}",l,l,0.3694281578063965,0,True,True,True,1,False
497,0,"{'probs': (0.9, 0.1), 'actions': ['h', 'j']}",j,k,0.4215240478515625,1,False,False,True,1,False
498,1,"{'probs': (0.9, 0.1), 'actions': ['h', 'j']}",j,j,0.4888169765472412,1,True,True,True,0,True
499,1,"{'probs': (0.9, 0.1), 'actions': ['h', 'j']}",h,h,0.42952704429626465,0,True,True,True,0,False
500,0,"{'probs': (0.9, 0.1), 'actions': ['h', 'j']}",h,h,0.3908259868621826,0,True,True,True,0,False
501,1,"{'probs': (0.9, 0.1), 'actions': ['h', 'j']}",j,j,0.3695380687713623,1,True,True,True,0,False
502,1,"{'probs': (0.9, 0.1), 'actions': ['h', 'j']}",j,j,0.547569990158081,1,True,True,True,0,False
503,1,"{'probs': (0.9, 0.1), 'actions': ['h', 'j']}",j,j,0.45471787452697754,1,True,True,True,0,False
504,1,"{'probs': (0.9, 0.1), 'actions': ['h', 'j']}",h,h,0.3677229881286621,0,True,True,True,0,False
505,1,"{'probs': (0.9, 0.1), 'actions': ['h', 'j']}",h,h,0.44722795486450195,0,True,True,True,0,False
506,1,"{'probs': (0.9, 0.1), 'actions': ['h', 'j']}",j,j,0.3676788806915283,1,True,True,True,0,False
507,1,"{'probs': (0.9, 0.1), 'actions': ['h', 'j']}",j,j,0.4125499725341797,1,True,True,True,0,False
508,1,"{'probs': (0.9, 0.1), 'actions': ['h', 'j']}",j,j,0.37755393981933594,1,True,True,True,0,False
509,1,"{'probs': (0.9, 0.1), 'actions': ['h', 'j']}",h,h,0.5095431804656982,0,True,True,True,0,False
510,1,"{'probs': (0.9, 0.1), 'actions': ['h', 'j']}",j,j,0.3943288326263428,1,True,True,True,0,False
511,0,"{'probs': (0.9, 0.1), 'actions': ['h', 'j']}",h,h,0.3815648555755615,0,True,True,True,0,False
512,0,"{'probs': (0.9, 0.1), 'actions': ['h', 'j']}",h,l,0.4736940860748291,0,False,False,True,1,True
513,0,"{'probs': (0.9, 0.1), 'actions': ['l', 'k']}",k,j,0.45545387268066406,1,False,False,True,0,True
514,1,"{'probs': (0.9, 0.1), 'actions': ['l', 'k']}",k,k,0.6040010452270508,1,True,True,True,1,True
515,0,"{'probs': (0.9, 0.1), 'actions': ['l', 'k']}",k,k,0.4291410446166992,1,True,True,True,1,False
516,1,"{'probs': (0.9, 0.1), 'actions': ['l', 'k']}",l,l,0.33185291290283203,0,True,True,True,1,False
517,1,"{'probs': (0.9, 0.1), 'actions': ['l', 'k']}",k,k,0.40186309814453125,1,True,True,True,1,False
518,1,"{'probs': (0.9, 0.1), 'actions': ['l', 'k']}",l,l,0.3493828773498535,0,True,True,True,1,False
519,1,"{'probs': (0.9, 0.1), 'actions': ['l', 'k']}",l,l,0.38573312759399414,0,True,True,True,1,False
520,1,"{'probs': (0.9, 0.1), 'actions': ['l', 'k']}",l,l,0.38246703147888184,0,True,True,True,1,False
521,0,"{'probs': (0.9, 0.1), 'actions': ['l', 'k']}",k,k,0.3883659839630127,1,True,True,True,1,False
522,0,"{'probs': (0.9, 0.1), 'actions': ['l', 'k']}",l,l,0.42314696311950684,0,True,True,True,1,False
523,0,"{'probs': (0.9, 0.1), 'actions': ['l', 'k']}",l,h,0.38259100914001465,0,False,False,True,0,True
524,1,"{'probs': (0.9, 0.1), 'actions': ['l', 'k']}",k,k,0.646826982498169,1,True,True,True,1,True
525,1,"{'probs': (0.9, 0.1), 'actions': ['l', 'k']}",l,l,0.4213380813598633,0,True,True,True,1,False
526,1,"{'probs': (0.9, 0.1), 'actions': ['l', 'k']}",l,l,0.40565991401672363,0,True,True,True,1,False
527,1,"{'probs': (0.9, 0.1), 'actions': ['l', 'k']}",l,l,0.42313504219055176,0,True,True,True,1,False
528,1,"{'probs': (0.9, 0.1), 'actions': ['l', 'k']}",k,k,0.43646788597106934,1,True,True,True,1,False
529,0,"{'probs': (0.9, 0.1), 'actions': ['h', 'j']}",h,l,0.3537001609802246,0,False,False,True,1,False
530,0,"{'probs': (0.9, 0.1), 'actions': ['h', 'j']}",j,k,0.4031059741973877,1,False,False,True,1,False
531,1,"{'probs': (0.9, 0.1), 'actions': ['h', 'j']}",j,j,0.4518320560455322,1,True,True,True,0,True
532,1,"{'probs': (0.9, 0.1), 'actions': ['h', 'j']}",j,j,0.46335291862487793,1,True,True,True,0,False
533,1,"{'probs': (0.9, 0.1), 'actions': ['h', 'j']}",h,h,0.40338897705078125,0,True,True,True,0,False
534,1,"{'probs': (0.9, 0.1), 'actions': ['h', 'j']}",j,j,0.3738830089569092,1,True,True,True,0,False
535,1,"{'probs': (0.9, 0.1), 'actions': ['h', 'j']}",h,h,0.37078118324279785,0,True,True,True,0,False
536,1,"{'probs': (0.9, 0.1), 'actions': ['h', 'j']}",j,j,0.4501218795776367,1,True,True,True,0,False
537,1,"{'probs': (0.9, 0.1), 'actions': ['h', 'j']}",j,j,0.48073911666870117,1,True,True,True,0,False
538,1,"{'probs': (0.9, 0.1), 'actions': ['h', 'j']}",h,h,0.4217100143432617,0,True,True,True,0,False
539,0,"{'probs': (0.9, 0.1), 'actions': ['h', 'j']}",j,k,0.46294307708740234,1,False,False,True,1,True
540,0,"{'probs': (0.9, 0.1), 'actions': ['h', 'j']}",j,k,0.5788991451263428,1,False,False,True,1,False
541,0,"{'probs': (0.9, 0.1), 'actions': ['h', 'j']}",h,h,0.419421911239624,0,True,True,True,0,True
542,0,"{'probs': (0.9, 0.1), 'actions': ['h', 'j']}",j,k,0.4492931365966797,1,False,False,True,1,True
543,1,"{'probs': (0.9, 0.1), 'actions': ['h', 'j']}",h,l,0.4073171615600586,0,False,False,True,1,False
544,0,"{'probs': (0.9, 0.1), 'actions': ['h', 'j']}",h,l,0.41478705406188965,0,False,False,True,1,False
545,1,"{'probs': (0.9, 0.1), 'actions': ['l', 'k']}",k,k,0.49130892753601074,1,True,True,True,1,False
546,1,"{'probs': (0.9, 0.1), 'actions': ['l', 'k']}",l,l,0.3412010669708252,0,True,True,True,1,False
547,1,"{'probs': (0.9, 0.1), 'actions': ['l', 'k']}",l,l,0.5246589183807373,0,True,True,True,1,False
548,0,"{'probs': (0.9, 0.1), 'actions': ['l', 'k']}",k,k,0.43533921241760254,1,True,True,True,1,False
549,0,"{'probs': (0.9, 0.1), 'actions': ['l', 'k']}",l,l,0.4143679141998291,0,True,True,True,1,False
550,0,"{'probs': (0.9, 0.1), 'actions': ['l', 'k']}",k,j,0.39899587631225586,1,False,False,True,0,True
551,1,"{'probs': (0.9, 0.1), 'actions': ['l', 'k']}",l,l,0.4877200126647949,0,True,True,True,1,True
552,1,"{'probs': (0.9, 0.1), 'actions': ['l', 'k']}",k,k,0.3886449337005615,1,True,True,True,1,False
553,1,"{'probs': (0.9, 0.1), 'actions': ['l', 'k']}",k,k,0.6407568454742432,1,True,True,True,1,False
554,1,"{'probs': (0.9, 0.1), 'actions': ['l', 'k']}",l,l,0.3525111675262451,0,True,True,True,1,False
555,1,"{'probs': (0.9, 0.1), 'actions': ['l', 'k']}",l,l,0.478809118270874,0,True,True,True,1,False
556,1,"{'probs': (0.9, 0.1), 'actions': ['l', 'k']}",k,k,0.4701859951019287,1,True,True,True,1,False
557,1,"{'probs': (0.9, 0.1), 'actions': ['l', 'k']}",k,k,0.44971394538879395,1,True,True,True,1,False
558,1,"{'probs': (0.9, 0.1), 'actions': ['l', 'k']}",k,k,0.45407605171203613,1,True,True,True,1,False
559,1,"{'probs': (0.9, 0.1), 'actions': ['l', 'k']}",l,l,0.3945431709289551,0,True,True,True,1,False
560,1,"{'probs': (0.9, 0.1), 'actions': ['l', 'k']}",l,l,0.5508251190185547,0,True,True,True,1,False
561,0,"{'probs': (0.9, 0.1), 'actions': ['h', 'j']}",j,k,0.4678769111633301,1,False,False,True,1,False
562,0,"{'probs': (0.9, 0.1), 'actions': ['h', 'j']}",j,k,0.6266329288482666,1,False,False,True,1,False
563,1,"{'probs': (0.9, 0.1), 'actions': ['h', 'j']}",h,h,0.5646531581878662,0,True,True,True,0,True
564,1,"{'probs': (0.9, 0.1), 'actions': ['h', 'j']}",j,j,0.45093607902526855,1,True,True,True,0,False
565,1,"{'probs': (0.9, 0.1), 'actions': ['h', 'j']}",h,h,0.41477108001708984,0,True,True,True,0,False
566,1,"{'probs': (0.9, 0.1), 'actions': ['h', 'j']}",h,h,0.44866013526916504,0,True,True,True,0,False
567,1,"{'probs': (0.9, 0.1), 'actions': ['h', 'j']}",j,j,0.4151890277862549,1,True,True,True,0,False
568,1,"{'probs': (0.9, 0.1), 'actions': ['h', 'j']}",h,h,0.5039911270141602,0,True,True,True,0,False
569,1,"{'probs': (0.9, 0.1), 'actions': ['h', 'j']}",h,h,0.3908720016479492,0,True,True,True,0,False
570,1,"{'probs': (0.9, 0.1), 'actions': ['h', 'j']}",h,h,0.419374942779541,0,True,True,True,0,False
571,0,"{'probs': (0.9, 0.1), 'actions': ['h', 'j']}",j,j,0.37918686866760254,1,True,True,True,0,False
572,0,"{'probs': (0.9, 0.1), 'actions': ['h', 'j']}",j,k,0.4593789577484131,1,False,False,True,1,True
573,0,"{'probs': (0.9, 0.1), 'actions': ['h', 'j']}",h,l,0.49314308166503906,0,False,False,True,1,False
574,1,"{'probs': (0.9, 0.1), 'actions': ['h', 'j']}",h,h,0.5004661083221436,0,True,True,True,0,True
575,0,"{'probs': (0.9, 0.1), 'actions': ['h', 'j']}",j,j,0.43501996994018555,1,True,True,True,0,False
576,0,"{'probs': (0.9, 0.1), 'actions': ['h', 'j']}",j,k,0.5512049198150635,1,False,False,True,1,True
577,1,"{'probs': (0.9, 0.1), 'actions': ['l', 'k']}",l,l,0.479403018951416,0,True,True,True,1,False
578,1,"{'probs': (0.9, 0.1), 'actions': ['l', 'k']}",l,l,0.4341239929199219,0,True,True,True,1,False
579,0,"{'probs': (0.9, 0.1), 'actions': ['l', 'k']}",k,k,0.4027571678161621,1,True,True,True,1,False
580,0,"{'probs': (0.9, 0.1), 'actions': ['l', 'k']}",l,h,0.496107816696167,0,False,False,True,0,True
581,1,"{'probs': (0.9, 0.1), 'actions': ['l', 'k']}",l,l,0.6213469505310059,0,True,True,True,1,True
582,1,"{'probs': (0.9, 0.1), 'actions': ['l', 'k']}",k,k,0.5551168918609619,1,True,True,True,1,False
583,1,"{'probs': (0.9, 0.1), 'actions': ['l', 'k']}",l,l,0.3741719722747803,0,True,True,True,1,False
584,1,"{'probs': (0.9, 0.1), 'actions': ['l', 'k']}",k,k,0.4202158451080322,1,True,True,True,1,False
585,1,"{'probs': (0.9, 0.1), 'actions': ['l', 'k']}",k,k,0.5043699741363525,1,True,True,True,1,False
586,1,"{'probs': (0.9, 0.1), 'actions': ['l', 'k']}",k,k,0.4435901641845703,1,True,True,True,1,False
587,1,"{'probs': (0.9, 0.1), 'actions': ['l', 'k']}",l,l,0.6288101673126221,0,True,True,True,1,False
588,0,"{'probs': (0.9, 0.1), 'actions': ['l', 'k']}",l,l,0.4677910804748535,0,True,True,True,1,False
589,0,"{'probs': (0.9, 0.1), 'actions': ['l', 'k']}",k,h,0.5637619495391846,1,False,False,False,0,True
590,0,"{'probs': (0.9, 0.1), 'actions': ['l', 'k']}",l,h,0.5263280868530273,0,False,False,True,0,False
591,0,"{'probs': (0.9, 0.1), 'actions': ['l', 'k']}",k,j,0.4929959774017334,1,False,False,True,0,False
592,1,"{'probs': (0.9, 0.1), 'actions': ['l', 'k']}",k,k,0.47232985496520996,1,True,True,True,1,True
593,0,"{'probs': (0.9, 0.1), 'actions': ['h', 'j']}",j,k,0.5166928768157959,1,False,False,True,1,False
594,1,"{'probs': (0.9, 0.1), 'actions': ['h', 'j']}",j,j,0.49587011337280273,1,True,True,True,0,True
595,1,"{'probs': (0.9, 0.1), 'actions': ['h', 'j']}",h,h,0.39173293113708496,0,True,True,True,0,False
596,0,"{'probs': (0.9, 0.1), 'actions': ['h', 'j']}",j,j,0.41645193099975586,1,True,True,True,0,False
597,0,"{'probs': (0.9, 0.1), 'actions': ['h', 'j']}",h,l,0.4553229808807373,0,False,False,True,1,True
598,0,"{'probs': (0.9, 0.1), 'actions': ['h', 'j']}",h,l,0.4535081386566162,0,False,False,True,1,False
599,1,"{'probs': (0.9, 0.1), 'actions': ['h', 'j']}",h,h,0.3723609447479248,0,True,True,True,0,True
600,1,"{'probs': (0.9, 0.1), 'actions': ['h', 'j']}",j,j,0.38538408279418945,1,True,True,True,0,False
601,1,"{'probs': (0.9, 0.1), 'actions': ['h', 'j']}",j,j,0.5083980560302734,1,True,True,True,0,False
602,1,"{'probs': (0.9, 0.1), 'actions': ['h', 'j']}",h,h,0.46645283699035645,0,True,True,True,0,False
603,0,"{'probs': (0.9, 0.1), 'actions': ['h', 'j']}",h,j,0.43938708305358887,0,False,True,False,0,False
604,1,"{'probs': (0.9, 0.1), 'actions': ['h', 'j']}",h,h,0.42156291007995605,0,True,True,True,0,False
605,1,"{'probs': (0.9, 0.1), 'actions': ['h', 'j']}",j,j,0.6424469947814941,1,True,True,True,0,False
606,1,"{'probs': (0.9, 0.1), 'actions': ['h', 'j']}",j,j,0.4695730209350586,1,True,True,True,0,False
607,1,"{'probs': (0.9, 0.1), 'actions': ['h', 'j']}",j,j,0.507317066192627,1,True,True,True,0,False
608,1,"{'probs': (0.9, 0.1), 'actions': ['h', 'j']}",h,h,0.5379829406738281,0,True,True,True,0,False
609,0,"{'probs': (0.9, 0.1), 'actions': ['l', 'k']}",k,j,0.42063283920288086,1,False,False,True,0,False
610,1,"{'probs': (0.9, 0.1), 'actions': ['l', 'k']}",k,h,0.9445130825042725,1,False,False,False,0,False
611,0,"{'probs': (0.9, 0.1), 'actions': ['l', 'k']}",l,h,0.5132701396942139,0,False,False,True,0,False
613,1,"{'probs': (0.9, 0.1), 'actions': ['l', 'k']}",l,l,0.5110728740692139,0,True,True,True,1,True
614,0,"{'probs': (0.9, 0.1), 'actions': ['l', 'k']}",k,k,0.5239081382751465,1,True,True,True,1,False
615,0,"{'probs': (0.9, 0.1), 'actions': ['l', 'k']}",k,j,0.42735910415649414,1,False,False,True,0,True
616,0,"{'probs': (0.9, 0.1), 'actions': ['l', 'k']}",l,h,0.6481499671936035,0,False,False,True,0,False
617,0,"{'probs': (0.9, 0.1), 'actions': ['l', 'k']}",k,j,0.70632004737854,1,False,False,True,0,False
618,1,"{'probs': (0.9, 0.1), 'actions': ['l', 'k']}",l,l,0.3996920585632324,0,True,True,True,1,True
619,1,"{'probs': (0.9, 0.1), 'actions': ['l', 'k']}",l,l,0.4458580017089844,0,True,True,True,1,False
620,1,"{'probs': (0.9, 0.1), 'actions': ['l', 'k']}",k,k,0.4320189952850342,1,True,True,True,1,False
621,1,"{'probs': (0.9, 0.1), 'actions': ['l', 'k']}",l,l,0.488771915435791,0,True,True,True,1,False
622,1,"{'probs': (0.9, 0.1), 'actions': ['l', 'k']}",l,l,0.4171161651611328,0,True,True,True,1,False
623,1,"{'probs': (0.9, 0.1), 'actions': ['l', 'k']}",k,k,0.4829249382019043,1,True,True,True,1,False
624,0,"{'probs': (0.9, 0.1), 'actions': ['l', 'k']}",k,k,0.4253561496734619,1,True,True,True,1,False
625,0,"{'probs': (0.9, 0.1), 'actions': ['h', 'j']}",h,j,0.801630973815918,0,False,True,False,0,True
626,0,"{'probs': (0.9, 0.1), 'actions': ['h', 'j']}",j,j,0.7335920333862305,1,True,True,True,0,False
627,0,"{'probs': (0.9, 0.1), 'actions': ['h', 'j']}",j,k,0.4934389591217041,1,False,False,True,1,True
628,0,"{'probs': (0.9, 0.1), 'actions': ['h', 'j']}",h,l,0.5189127922058105,0,False,False,True,1,False
629,1,"{'probs': (0.9, 0.1), 'actions': ['h', 'j']}",j,j,0.5956830978393555,1,True,True,True,0,True
630,1,"{'probs': (0.9, 0.1), 'actions': ['h', 'j']}",h,h,0.40110206604003906,0,True,True,True,0,False
631,1,"{'probs': (0.9, 0.1), 'actions': ['h', 'j']}",h,h,0.5043661594390869,0,True,True,True,0,False
632,1,"{'probs': (0.9, 0.1), 'actions': ['h', 'j']}",j,j,0.40470004081726074,1,True,True,True,0,False
633,1,"{'probs': (0.9, 0.1), 'actions': ['h', 'j']}",h,h,0.4679749011993408,0,True,True,True,0,False
634,1,"{'probs': (0.9, 0.1), 'actions': ['h', 'j']}",j,j,0.403961181640625,1,True,True,True,0,False
635,1,"{'probs': (0.9, 0.1), 'actions': ['h', 'j']}",j,j,0.5055568218231201,1,True,True,True,0,False
636,1,"{'probs': (0.9, 0.1), 'actions': ['h', 'j']}",j,j,0.5346989631652832,1,True,True,True,0,False
637,1,"{'probs': (0.9, 0.1), 'actions': ['h', 'j']}",h,h,0.4750549793243408,0,True,True,True,0,False
638,1,"{'probs': (0.9, 0.1), 'actions': ['h', 'j']}",h,h,0.477402925491333,0,True,True,True,0,False
639,1,"{'probs': (0.9, 0.1), 'actions': ['h', 'j']}",h,h,0.43251490592956543,0,True,True,True,0,False
640,1,"{'probs': (0.9, 0.1), 'actions': ['h', 'j']}",j,j,0.41986894607543945,1,True,True,True,0,False
