trial_count,FB,TS,correct_action,response,rt,stim,correct,con_ts,con_stim,curr_ts,switch
1,1,"{'probs': (0.8, 0.2), 'actions': ['h', 'l']}",h,h,0.5041258335113525,0,True,True,True,1,False
2,1,"{'probs': (0.8, 0.2), 'actions': ['h', 'l']}",h,h,0.581995964050293,0,True,True,True,1,False
3,0,"{'probs': (0.8, 0.2), 'actions': ['h', 'l']}",l,j,0.5964272022247314,1,False,False,False,0,True
4,1,"{'probs': (0.8, 0.2), 'actions': ['h', 'l']}",l,l,0.682513952255249,1,True,True,True,1,True
5,1,"{'probs': (0.8, 0.2), 'actions': ['h', 'l']}",l,l,0.4539759159088135,1,True,True,True,1,False
6,1,"{'probs': (0.8, 0.2), 'actions': ['h', 'l']}",h,h,0.41425108909606934,0,True,True,True,1,False
7,1,"{'probs': (0.8, 0.2), 'actions': ['h', 'l']}",h,h,0.41646695137023926,0,True,True,True,1,False
8,1,"{'probs': (0.8, 0.2), 'actions': ['h', 'l']}",l,l,0.3872039318084717,1,True,True,True,1,False
9,0,"{'probs': (0.8, 0.2), 'actions': ['h', 'l']}",l,h,0.7070112228393555,1,False,True,False,1,False
10,0,"{'probs': (0.8, 0.2), 'actions': ['h', 'l']}",h,h,0.5319030284881592,0,True,True,True,1,False
11,0,"{'probs': (0.8, 0.2), 'actions': ['h', 'l']}",h,h,0.5004079341888428,0,True,True,True,1,False
12,0,"{'probs': (0.8, 0.2), 'actions': ['h', 'l']}",h,h,0.5787720680236816,0,True,True,True,1,False
13,0,"{'probs': (0.8, 0.2), 'actions': ['h', 'l']}",l,j,0.4537208080291748,1,False,False,False,0,True
14,0,"{'probs': (0.8, 0.2), 'actions': ['h', 'l']}",l,k,0.5894238948822021,1,False,False,True,0,False
15,1,"{'probs': (0.8, 0.2), 'actions': ['h', 'l']}",l,l,0.35608816146850586,1,True,True,True,1,True
16,0,"{'probs': (0.8, 0.2), 'actions': ['j', 'k']}",j,h,0.5092620849609375,0,False,False,True,1,False
17,0,"{'probs': (0.8, 0.2), 'actions': ['j', 'k']}",k,j,0.5740668773651123,1,False,True,False,0,True
18,0,"{'probs': (0.8, 0.2), 'actions': ['j', 'k']}",j,k,0.5610990524291992,0,False,True,False,0,False
19,0,"{'probs': (0.8, 0.2), 'actions': ['j', 'k']}",j,h,0.41977405548095703,0,False,False,True,1,True
20,1,"{'probs': (0.8, 0.2), 'actions': ['j', 'k']}",k,j,0.5489509105682373,1,False,True,False,0,True
21,0,"{'probs': (0.8, 0.2), 'actions': ['j', 'k']}",j,k,0.4129140377044678,0,False,True,False,0,False
22,1,"{'probs': (0.8, 0.2), 'actions': ['j', 'k']}",j,j,0.7400391101837158,0,True,True,True,0,False
23,1,"{'probs': (0.8, 0.2), 'actions': ['j', 'k']}",j,j,0.8613839149475098,0,True,True,True,0,False
24,0,"{'probs': (0.8, 0.2), 'actions': ['j', 'k']}",k,l,0.4769299030303955,1,False,False,True,1,True
25,1,"{'probs': (0.8, 0.2), 'actions': ['j', 'k']}",j,j,0.3928499221801758,0,True,True,True,0,True
26,0,"{'probs': (0.8, 0.2), 'actions': ['j', 'k']}",j,j,0.597681999206543,0,True,True,True,0,False
27,0,"{'probs': (0.8, 0.2), 'actions': ['j', 'k']}",k,k,0.7257051467895508,1,True,True,True,0,False
28,0,"{'probs': (0.8, 0.2), 'actions': ['j', 'k']}",k,l,0.512747049331665,1,False,False,True,1,True
29,0,"{'probs': (0.8, 0.2), 'actions': ['j', 'k']}",k,h,0.48935794830322266,1,False,False,False,1,False
30,0,"{'probs': (0.8, 0.2), 'actions': ['j', 'k']}",k,l,0.36385297775268555,1,False,False,True,1,False
31,1,"{'probs': (0.8, 0.2), 'actions': ['h', 'l']}",h,h,0.3545231819152832,0,True,True,True,1,False
32,0,"{'probs': (0.8, 0.2), 'actions': ['h', 'l']}",l,k,0.4966239929199219,1,False,False,True,0,True
33,1,"{'probs': (0.8, 0.2), 'actions': ['h', 'l']}",h,h,0.436474084854126,0,True,True,True,1,True
34,1,"{'probs': (0.8, 0.2), 'actions': ['h', 'l']}",l,l,0.31282711029052734,1,True,True,True,1,False
35,1,"{'probs': (0.8, 0.2), 'actions': ['h', 'l']}",l,l,0.4429600238800049,1,True,True,True,1,False
36,1,"{'probs': (0.8, 0.2), 'actions': ['h', 'l']}",h,h,0.37134695053100586,0,True,True,True,1,False
37,1,"{'probs': (0.8, 0.2), 'actions': ['h', 'l']}",l,l,0.3843569755554199,1,True,True,True,1,False
38,1,"{'probs': (0.8, 0.2), 'actions': ['h', 'l']}",l,l,0.45818591117858887,1,True,True,True,1,False
39,1,"{'probs': (0.8, 0.2), 'actions': ['h', 'l']}",l,l,0.48000597953796387,1,True,True,True,1,False
40,0,"{'probs': (0.8, 0.2), 'actions': ['h', 'l']}",h,h,0.45754098892211914,0,True,True,True,1,False
41,1,"{'probs': (0.8, 0.2), 'actions': ['h', 'l']}",l,l,0.545295000076294,1,True,True,True,1,False
42,1,"{'probs': (0.8, 0.2), 'actions': ['h', 'l']}",h,h,0.38331007957458496,0,True,True,True,1,False
43,1,"{'probs': (0.8, 0.2), 'actions': ['h', 'l']}",h,h,0.4983079433441162,0,True,True,True,1,False
44,1,"{'probs': (0.8, 0.2), 'actions': ['h', 'l']}",h,h,0.4776439666748047,0,True,True,True,1,False
45,0,"{'probs': (0.8, 0.2), 'actions': ['h', 'l']}",l,l,0.4920470714569092,1,True,True,True,1,False
46,0,"{'probs': (0.8, 0.2), 'actions': ['j', 'k']}",k,l,0.5956621170043945,1,False,False,True,1,False
47,1,"{'probs': (0.8, 0.2), 'actions': ['j', 'k']}",k,k,0.4995408058166504,1,True,True,True,0,True
48,0,"{'probs': (0.8, 0.2), 'actions': ['j', 'k']}",j,j,0.3525199890136719,0,True,True,True,0,False
49,0,"{'probs': (0.8, 0.2), 'actions': ['j', 'k']}",j,j,0.5316329002380371,0,True,True,True,0,False
50,1,"{'probs': (0.8, 0.2), 'actions': ['j', 'k']}",j,j,0.4972090721130371,0,True,True,True,0,False
51,1,"{'probs': (0.8, 0.2), 'actions': ['j', 'k']}",k,k,0.3847038745880127,1,True,True,True,0,False
52,1,"{'probs': (0.8, 0.2), 'actions': ['j', 'k']}",k,k,0.8665719032287598,1,True,True,True,0,False
53,1,"{'probs': (0.8, 0.2), 'actions': ['j', 'k']}",j,j,0.4612009525299072,0,True,True,True,0,False
54,1,"{'probs': (0.8, 0.2), 'actions': ['j', 'k']}",k,k,0.4371519088745117,1,True,True,True,0,False
55,1,"{'probs': (0.8, 0.2), 'actions': ['j', 'k']}",k,k,0.5531949996948242,1,True,True,True,0,False
56,1,"{'probs': (0.8, 0.2), 'actions': ['j', 'k']}",j,j,0.5288939476013184,0,True,True,True,0,False
57,1,"{'probs': (0.8, 0.2), 'actions': ['j', 'k']}",k,k,0.4206099510192871,1,True,True,True,0,False
58,1,"{'probs': (0.8, 0.2), 'actions': ['j', 'k']}",j,j,0.5193369388580322,0,True,True,True,0,False
59,0,"{'probs': (0.8, 0.2), 'actions': ['j', 'k']}",k,k,0.4494588375091553,1,True,True,True,0,False
60,1,"{'probs': (0.8, 0.2), 'actions': ['j', 'k']}",k,k,0.49610400199890137,1,True,True,True,0,False
61,0,"{'probs': (0.8, 0.2), 'actions': ['h', 'l']}",l,k,0.4710409641265869,1,False,False,True,0,False
62,0,"{'probs': (0.8, 0.2), 'actions': ['h', 'l']}",h,j,0.3112070560455322,0,False,False,True,0,False
63,1,"{'probs': (0.8, 0.2), 'actions': ['h', 'l']}",h,h,0.4162869453430176,0,True,True,True,1,True
64,1,"{'probs': (0.8, 0.2), 'actions': ['h', 'l']}",l,l,0.49208784103393555,1,True,True,True,1,False
65,1,"{'probs': (0.8, 0.2), 'actions': ['h', 'l']}",h,h,0.43932294845581055,0,True,True,True,1,False
66,1,"{'probs': (0.8, 0.2), 'actions': ['h', 'l']}",l,l,0.4979898929595947,1,True,True,True,1,False
67,1,"{'probs': (0.8, 0.2), 'actions': ['h', 'l']}",h,h,0.565453052520752,0,True,True,True,1,False
68,0,"{'probs': (0.8, 0.2), 'actions': ['h', 'l']}",h,h,0.4574398994445801,0,True,True,True,1,False
69,0,"{'probs': (0.8, 0.2), 'actions': ['h', 'l']}",l,l,0.3958301544189453,1,True,True,True,1,False
70,0,"{'probs': (0.8, 0.2), 'actions': ['h', 'l']}",h,j,0.4141879081726074,0,False,False,True,0,True
71,1,"{'probs': (0.8, 0.2), 'actions': ['h', 'l']}",h,h,0.48744797706604004,0,True,True,True,1,True
72,0,"{'probs': (0.8, 0.2), 'actions': ['h', 'l']}",l,l,0.43585896492004395,1,True,True,True,1,False
73,1,"{'probs': (0.8, 0.2), 'actions': ['h', 'l']}",l,l,0.3892850875854492,1,True,True,True,1,False
74,1,"{'probs': (0.8, 0.2), 'actions': ['h', 'l']}",l,l,0.526792049407959,1,True,True,True,1,False
75,1,"{'probs': (0.8, 0.2), 'actions': ['h', 'l']}",h,h,0.4299612045288086,0,True,True,True,1,False
76,1,"{'probs': (0.8, 0.2), 'actions': ['j', 'k']}",k,l,0.5767300128936768,1,False,False,True,1,False
77,0,"{'probs': (0.8, 0.2), 'actions': ['j', 'k']}",j,h,0.4622371196746826,0,False,False,True,1,False
78,0,"{'probs': (0.8, 0.2), 'actions': ['j', 'k']}",j,h,0.5055060386657715,0,False,False,True,1,False
79,1,"{'probs': (0.8, 0.2), 'actions': ['j', 'k']}",j,j,0.44539499282836914,0,True,True,True,0,True
80,1,"{'probs': (0.8, 0.2), 'actions': ['j', 'k']}",k,k,0.38552403450012207,1,True,True,True,0,False
81,0,"{'probs': (0.8, 0.2), 'actions': ['j', 'k']}",k,j,0.3370189666748047,1,False,True,False,0,False
82,0,"{'probs': (0.8, 0.2), 'actions': ['j', 'k']}",j,j,0.45818519592285156,0,True,True,True,0,False
83,1,"{'probs': (0.8, 0.2), 'actions': ['j', 'k']}",j,j,0.5340127944946289,0,True,True,True,0,False
84,1,"{'probs': (0.8, 0.2), 'actions': ['j', 'k']}",k,k,0.4742319583892822,1,True,True,True,0,False
85,0,"{'probs': (0.8, 0.2), 'actions': ['j', 'k']}",j,j,0.5440020561218262,0,True,True,True,0,False
86,1,"{'probs': (0.8, 0.2), 'actions': ['j', 'k']}",k,k,0.5718169212341309,1,True,True,True,0,False
87,1,"{'probs': (0.8, 0.2), 'actions': ['j', 'k']}",k,k,0.6416721343994141,1,True,True,True,0,False
88,1,"{'probs': (0.8, 0.2), 'actions': ['j', 'k']}",j,j,0.5976519584655762,0,True,True,True,0,False
89,1,"{'probs': (0.8, 0.2), 'actions': ['j', 'k']}",j,j,0.4888739585876465,0,True,True,True,0,False
90,0,"{'probs': (0.8, 0.2), 'actions': ['j', 'k']}",k,l,0.6552028656005859,1,False,False,True,1,True
91,1,"{'probs': (0.8, 0.2), 'actions': ['h', 'l']}",h,h,0.434877872467041,0,True,True,True,1,False
92,0,"{'probs': (0.8, 0.2), 'actions': ['h', 'l']}",l,k,0.5089931488037109,1,False,False,True,0,True
93,0,"{'probs': (0.8, 0.2), 'actions': ['h', 'l']}",l,k,0.5155808925628662,1,False,False,True,0,False
94,0,"{'probs': (0.8, 0.2), 'actions': ['h', 'l']}",l,k,0.627504825592041,1,False,False,True,0,False
95,1,"{'probs': (0.8, 0.2), 'actions': ['h', 'l']}",h,h,0.3520090579986572,0,True,True,True,1,True
96,1,"{'probs': (0.8, 0.2), 'actions': ['h', 'l']}",l,l,0.32852816581726074,1,True,True,True,1,False
97,0,"{'probs': (0.8, 0.2), 'actions': ['h', 'l']}",h,h,0.49761295318603516,0,True,True,True,1,False
98,1,"{'probs': (0.8, 0.2), 'actions': ['h', 'l']}",l,l,0.7026550769805908,1,True,True,True,1,False
99,1,"{'probs': (0.8, 0.2), 'actions': ['h', 'l']}",h,h,0.533275842666626,0,True,True,True,1,False
100,1,"{'probs': (0.8, 0.2), 'actions': ['h', 'l']}",l,l,0.4320359230041504,1,True,True,True,1,False
101,1,"{'probs': (0.8, 0.2), 'actions': ['h', 'l']}",h,h,0.41998910903930664,0,True,True,True,1,False
102,1,"{'probs': (0.8, 0.2), 'actions': ['h', 'l']}",l,l,0.3477191925048828,1,True,True,True,1,False
103,1,"{'probs': (0.8, 0.2), 'actions': ['h', 'l']}",h,h,0.3640611171722412,0,True,True,True,1,False
104,1,"{'probs': (0.8, 0.2), 'actions': ['h', 'l']}",h,h,0.46538805961608887,0,True,True,True,1,False
105,1,"{'probs': (0.8, 0.2), 'actions': ['h', 'l']}",l,l,0.4908161163330078,1,True,True,True,1,False
106,1,"{'probs': (0.8, 0.2), 'actions': ['j', 'k']}",j,h,0.44524502754211426,0,False,False,True,1,False
107,1,"{'probs': (0.8, 0.2), 'actions': ['j', 'k']}",k,l,0.571523904800415,1,False,False,True,1,False
108,0,"{'probs': (0.8, 0.2), 'actions': ['j', 'k']}",j,h,0.3733980655670166,0,False,False,True,1,False
109,1,"{'probs': (0.8, 0.2), 'actions': ['j', 'k']}",k,k,0.5668079853057861,1,True,True,True,0,True
110,0,"{'probs': (0.8, 0.2), 'actions': ['j', 'k']}",k,j,0.5181999206542969,1,False,True,False,0,False
111,0,"{'probs': (0.8, 0.2), 'actions': ['j', 'k']}",k,k,0.45762109756469727,1,True,True,True,0,False
112,0,"{'probs': (0.8, 0.2), 'actions': ['j', 'k']}",j,j,0.4048349857330322,0,True,True,True,0,False
113,1,"{'probs': (0.8, 0.2), 'actions': ['j', 'k']}",j,j,0.5057229995727539,0,True,True,True,0,False
114,1,"{'probs': (0.8, 0.2), 'actions': ['j', 'k']}",k,k,0.4919450283050537,1,True,True,True,0,False
115,1,"{'probs': (0.8, 0.2), 'actions': ['j', 'k']}",k,k,0.5658550262451172,1,True,True,True,0,False
116,1,"{'probs': (0.8, 0.2), 'actions': ['j', 'k']}",j,j,0.5210199356079102,0,True,True,True,0,False
117,0,"{'probs': (0.8, 0.2), 'actions': ['j', 'k']}",k,k,0.44666099548339844,1,True,True,True,0,False
118,1,"{'probs': (0.8, 0.2), 'actions': ['j', 'k']}",j,j,0.4266970157623291,0,True,True,True,0,False
119,0,"{'probs': (0.8, 0.2), 'actions': ['j', 'k']}",j,j,0.4514181613922119,0,True,True,True,0,False
120,1,"{'probs': (0.8, 0.2), 'actions': ['j', 'k']}",k,k,0.4533109664916992,1,True,True,True,0,False
121,0,"{'probs': (0.8, 0.2), 'actions': ['h', 'l']}",h,j,0.4005770683288574,0,False,False,True,0,False
122,0,"{'probs': (0.8, 0.2), 'actions': ['h', 'l']}",h,j,0.5829200744628906,0,False,False,True,0,False
123,1,"{'probs': (0.8, 0.2), 'actions': ['h', 'l']}",l,l,0.6059520244598389,1,True,True,True,1,True
124,1,"{'probs': (0.8, 0.2), 'actions': ['h', 'l']}",h,h,0.45099806785583496,0,True,True,True,1,False
125,1,"{'probs': (0.8, 0.2), 'actions': ['h', 'l']}",l,l,0.39627504348754883,1,True,True,True,1,False
126,1,"{'probs': (0.8, 0.2), 'actions': ['h', 'l']}",h,h,0.5070061683654785,0,True,True,True,1,False
127,1,"{'probs': (0.8, 0.2), 'actions': ['h', 'l']}",h,h,0.5431380271911621,0,True,True,True,1,False
128,1,"{'probs': (0.8, 0.2), 'actions': ['h', 'l']}",l,l,0.42832112312316895,1,True,True,True,1,False
129,1,"{'probs': (0.8, 0.2), 'actions': ['h', 'l']}",l,l,0.4997239112854004,1,True,True,True,1,False
130,0,"{'probs': (0.8, 0.2), 'actions': ['h', 'l']}",l,l,0.47904515266418457,1,True,True,True,1,False
131,1,"{'probs': (0.8, 0.2), 'actions': ['h', 'l']}",h,h,0.3621680736541748,0,True,True,True,1,False
132,1,"{'probs': (0.8, 0.2), 'actions': ['h', 'l']}",h,h,0.43601298332214355,0,True,True,True,1,False
133,0,"{'probs': (0.8, 0.2), 'actions': ['h', 'l']}",l,l,0.3220491409301758,1,True,True,True,1,False
134,1,"{'probs': (0.8, 0.2), 'actions': ['h', 'l']}",h,j,0.39565110206604004,0,False,False,True,0,True
135,0,"{'probs': (0.8, 0.2), 'actions': ['h', 'l']}",h,j,0.5015230178833008,0,False,False,True,0,False
136,0,"{'probs': (0.8, 0.2), 'actions': ['j', 'k']}",j,j,0.5192720890045166,0,True,True,True,0,False
137,1,"{'probs': (0.8, 0.2), 'actions': ['j', 'k']}",k,k,0.35549092292785645,1,True,True,True,0,False
138,0,"{'probs': (0.8, 0.2), 'actions': ['j', 'k']}",k,k,0.4910848140716553,1,True,True,True,0,False
139,1,"{'probs': (0.8, 0.2), 'actions': ['j', 'k']}",j,j,0.34896016120910645,0,True,True,True,0,False
140,0,"{'probs': (0.8, 0.2), 'actions': ['j', 'k']}",j,j,0.46841001510620117,0,True,True,True,0,False
141,1,"{'probs': (0.8, 0.2), 'actions': ['j', 'k']}",k,k,0.4523909091949463,1,True,True,True,0,False
142,1,"{'probs': (0.8, 0.2), 'actions': ['j', 'k']}",j,j,0.5891740322113037,0,True,True,True,0,False
143,1,"{'probs': (0.8, 0.2), 'actions': ['j', 'k']}",k,k,0.4231579303741455,1,True,True,True,0,False
144,1,"{'probs': (0.8, 0.2), 'actions': ['j', 'k']}",k,k,0.4758460521697998,1,True,True,True,0,False
145,1,"{'probs': (0.8, 0.2), 'actions': ['j', 'k']}",j,j,0.3725740909576416,0,True,True,True,0,False
146,0,"{'probs': (0.8, 0.2), 'actions': ['j', 'k']}",j,j,0.4139571189880371,0,True,True,True,0,False
147,0,"{'probs': (0.8, 0.2), 'actions': ['j', 'k']}",k,l,0.4704630374908447,1,False,False,True,1,True
148,1,"{'probs': (0.8, 0.2), 'actions': ['j', 'k']}",k,k,0.45655202865600586,1,True,True,True,0,True
149,1,"{'probs': (0.8, 0.2), 'actions': ['j', 'k']}",j,j,0.38590192794799805,0,True,True,True,0,False
150,1,"{'probs': (0.8, 0.2), 'actions': ['j', 'k']}",j,j,0.5312581062316895,0,True,True,True,0,False
151,0,"{'probs': (0.8, 0.2), 'actions': ['h', 'l']}",h,j,0.4495730400085449,0,False,False,True,0,False
152,1,"{'probs': (0.8, 0.2), 'actions': ['h', 'l']}",l,l,0.49149107933044434,1,True,True,True,1,True
153,1,"{'probs': (0.8, 0.2), 'actions': ['h', 'l']}",l,l,0.46718502044677734,1,True,True,True,1,False
154,1,"{'probs': (0.8, 0.2), 'actions': ['h', 'l']}",h,h,0.5008108615875244,0,True,True,True,1,False
155,1,"{'probs': (0.8, 0.2), 'actions': ['h', 'l']}",l,l,0.6377711296081543,1,True,True,True,1,False
156,1,"{'probs': (0.8, 0.2), 'actions': ['h', 'l']}",h,h,0.44547104835510254,0,True,True,True,1,False
157,1,"{'probs': (0.8, 0.2), 'actions': ['h', 'l']}",l,l,0.542557954788208,1,True,True,True,1,False
158,0,"{'probs': (0.8, 0.2), 'actions': ['h', 'l']}",l,l,0.5177500247955322,1,True,True,True,1,False
159,1,"{'probs': (0.8, 0.2), 'actions': ['h', 'l']}",l,l,0.5160560607910156,1,True,True,True,1,False
160,1,"{'probs': (0.8, 0.2), 'actions': ['h', 'l']}",h,h,0.4342470169067383,0,True,True,True,1,False
161,1,"{'probs': (0.8, 0.2), 'actions': ['h', 'l']}",l,l,0.3793330192565918,1,True,True,True,1,False
162,1,"{'probs': (0.8, 0.2), 'actions': ['h', 'l']}",l,l,0.5368020534515381,1,True,True,True,1,False
163,1,"{'probs': (0.8, 0.2), 'actions': ['h', 'l']}",h,h,0.36601805686950684,0,True,True,True,1,False
164,1,"{'probs': (0.8, 0.2), 'actions': ['h', 'l']}",h,h,0.5451757907867432,0,True,True,True,1,False
165,0,"{'probs': (0.8, 0.2), 'actions': ['h', 'l']}",h,h,0.4563479423522949,0,True,True,True,1,False
166,1,"{'probs': (0.8, 0.2), 'actions': ['j', 'k']}",j,j,0.47528600692749023,0,True,True,True,0,True
167,1,"{'probs': (0.8, 0.2), 'actions': ['j', 'k']}",j,j,0.5592219829559326,0,True,True,True,0,False
168,0,"{'probs': (0.8, 0.2), 'actions': ['j', 'k']}",j,j,0.5560479164123535,0,True,True,True,0,False
169,1,"{'probs': (0.8, 0.2), 'actions': ['j', 'k']}",k,k,0.4620199203491211,1,True,True,True,0,False
170,0,"{'probs': (0.8, 0.2), 'actions': ['j', 'k']}",k,k,0.42903804779052734,1,True,True,True,0,False
171,1,"{'probs': (0.8, 0.2), 'actions': ['j', 'k']}",j,j,0.34950900077819824,0,True,True,True,0,False
172,1,"{'probs': (0.8, 0.2), 'actions': ['j', 'k']}",k,k,0.4053330421447754,1,True,True,True,0,False
173,1,"{'probs': (0.8, 0.2), 'actions': ['j', 'k']}",j,j,0.36653900146484375,0,True,True,True,0,False
174,1,"{'probs': (0.8, 0.2), 'actions': ['j', 'k']}",j,j,0.4964749813079834,0,True,True,True,0,False
175,0,"{'probs': (0.8, 0.2), 'actions': ['j', 'k']}",j,j,0.4508380889892578,0,True,True,True,0,False
176,1,"{'probs': (0.8, 0.2), 'actions': ['j', 'k']}",k,k,0.49088287353515625,1,True,True,True,0,False
177,1,"{'probs': (0.8, 0.2), 'actions': ['j', 'k']}",k,k,0.4233870506286621,1,True,True,True,0,False
178,1,"{'probs': (0.8, 0.2), 'actions': ['j', 'k']}",k,k,0.461871862411499,1,True,True,True,0,False
179,1,"{'probs': (0.8, 0.2), 'actions': ['j', 'k']}",j,j,0.49249696731567383,0,True,True,True,0,False
180,1,"{'probs': (0.8, 0.2), 'actions': ['j', 'k']}",j,j,0.4818148612976074,0,True,True,True,0,False
181,0,"{'probs': (0.8, 0.2), 'actions': ['h', 'l']}",l,k,0.44475483894348145,1,False,False,True,0,False
182,1,"{'probs': (0.8, 0.2), 'actions': ['h', 'l']}",l,l,0.7551569938659668,1,True,True,True,1,True
183,0,"{'probs': (0.8, 0.2), 'actions': ['h', 'l']}",l,l,0.6161260604858398,1,True,True,True,1,False
184,1,"{'probs': (0.8, 0.2), 'actions': ['h', 'l']}",h,h,0.4489729404449463,0,True,True,True,1,False
185,1,"{'probs': (0.8, 0.2), 'actions': ['h', 'l']}",l,l,0.42148590087890625,1,True,True,True,1,False
186,1,"{'probs': (0.8, 0.2), 'actions': ['h', 'l']}",h,h,0.5303800106048584,0,True,True,True,1,False
187,1,"{'probs': (0.8, 0.2), 'actions': ['h', 'l']}",h,h,0.5630290508270264,0,True,True,True,1,False
188,1,"{'probs': (0.8, 0.2), 'actions': ['h', 'l']}",h,h,0.43802714347839355,0,True,True,True,1,False
189,1,"{'probs': (0.8, 0.2), 'actions': ['h', 'l']}",l,l,0.40372800827026367,1,True,True,True,1,False
190,1,"{'probs': (0.8, 0.2), 'actions': ['h', 'l']}",l,l,0.5313839912414551,1,True,True,True,1,False
191,1,"{'probs': (0.8, 0.2), 'actions': ['h', 'l']}",h,h,0.47974586486816406,0,True,True,True,1,False
192,0,"{'probs': (0.8, 0.2), 'actions': ['h', 'l']}",h,h,0.41790199279785156,0,True,True,True,1,False
193,0,"{'probs': (0.8, 0.2), 'actions': ['h', 'l']}",l,k,0.5014321804046631,1,False,False,True,0,True
194,0,"{'probs': (0.8, 0.2), 'actions': ['h', 'l']}",h,h,0.574329137802124,0,True,True,True,1,True
195,1,"{'probs': (0.8, 0.2), 'actions': ['h', 'l']}",l,l,0.4227309226989746,1,True,True,True,1,False
196,1,"{'probs': (0.8, 0.2), 'actions': ['j', 'k']}",k,l,0.44754910469055176,1,False,False,True,1,False
197,1,"{'probs': (0.8, 0.2), 'actions': ['j', 'k']}",k,l,0.556333065032959,1,False,False,True,1,False
198,0,"{'probs': (0.8, 0.2), 'actions': ['j', 'k']}",k,l,0.5082969665527344,1,False,False,True,1,False
199,1,"{'probs': (0.8, 0.2), 'actions': ['j', 'k']}",j,j,0.34839701652526855,0,True,True,True,0,True
200,1,"{'probs': (0.8, 0.2), 'actions': ['j', 'k']}",k,k,0.34011006355285645,1,True,True,True,0,False
201,1,"{'probs': (0.8, 0.2), 'actions': ['j', 'k']}",j,j,0.4067540168762207,0,True,True,True,0,False
202,1,"{'probs': (0.8, 0.2), 'actions': ['j', 'k']}",j,j,0.40439605712890625,0,True,True,True,0,False
203,1,"{'probs': (0.8, 0.2), 'actions': ['j', 'k']}",k,k,0.3785560131072998,1,True,True,True,0,False
204,1,"{'probs': (0.8, 0.2), 'actions': ['j', 'k']}",j,j,0.41474199295043945,0,True,True,True,0,False
205,1,"{'probs': (0.8, 0.2), 'actions': ['j', 'k']}",k,k,0.42302584648132324,1,True,True,True,0,False
206,0,"{'probs': (0.8, 0.2), 'actions': ['j', 'k']}",k,k,0.513286828994751,1,True,True,True,0,False
207,1,"{'probs': (0.8, 0.2), 'actions': ['j', 'k']}",j,j,0.3325941562652588,0,True,True,True,0,False
208,1,"{'probs': (0.8, 0.2), 'actions': ['j', 'k']}",j,j,0.4504399299621582,0,True,True,True,0,False
209,1,"{'probs': (0.8, 0.2), 'actions': ['j', 'k']}",k,k,0.45198583602905273,1,True,True,True,0,False
210,1,"{'probs': (0.8, 0.2), 'actions': ['j', 'k']}",j,j,0.40357303619384766,0,True,True,True,0,False
211,0,"{'probs': (0.8, 0.2), 'actions': ['h', 'l']}",l,k,0.42861104011535645,1,False,False,True,0,False
212,0,"{'probs': (0.8, 0.2), 'actions': ['h', 'l']}",l,k,0.4786250591278076,1,False,False,True,0,False
213,0,"{'probs': (0.8, 0.2), 'actions': ['h', 'l']}",h,h,0.5583879947662354,0,True,True,True,1,True
214,0,"{'probs': (0.8, 0.2), 'actions': ['h', 'l']}",l,k,0.5582740306854248,1,False,False,True,0,True
215,1,"{'probs': (0.8, 0.2), 'actions': ['h', 'l']}",h,h,0.48409509658813477,0,True,True,True,1,True
216,0,"{'probs': (0.8, 0.2), 'actions': ['h', 'l']}",l,l,0.46028590202331543,1,True,True,True,1,False
217,1,"{'probs': (0.8, 0.2), 'actions': ['h', 'l']}",h,h,0.32855987548828125,0,True,True,True,1,False
218,0,"{'probs': (0.8, 0.2), 'actions': ['h', 'l']}",l,l,0.4532458782196045,1,True,True,True,1,False
219,0,"{'probs': (0.8, 0.2), 'actions': ['h', 'l']}",h,h,0.3791639804840088,0,True,True,True,1,False
220,1,"{'probs': (0.8, 0.2), 'actions': ['h', 'l']}",h,h,0.46268606185913086,0,True,True,True,1,False
221,1,"{'probs': (0.8, 0.2), 'actions': ['h', 'l']}",h,h,0.42322278022766113,0,True,True,True,1,False
222,1,"{'probs': (0.8, 0.2), 'actions': ['h', 'l']}",l,l,0.4376239776611328,1,True,True,True,1,False
223,1,"{'probs': (0.8, 0.2), 'actions': ['h', 'l']}",l,l,0.4550480842590332,1,True,True,True,1,False
224,1,"{'probs': (0.8, 0.2), 'actions': ['h', 'l']}",l,l,0.44053006172180176,1,True,True,True,1,False
225,1,"{'probs': (0.8, 0.2), 'actions': ['h', 'l']}",h,h,0.43468308448791504,0,True,True,True,1,False
226,0,"{'probs': (0.8, 0.2), 'actions': ['j', 'k']}",k,l,0.5383760929107666,1,False,False,True,1,False
227,0,"{'probs': (0.8, 0.2), 'actions': ['j', 'k']}",k,l,0.5309231281280518,1,False,False,True,1,False
228,0,"{'probs': (0.8, 0.2), 'actions': ['j', 'k']}",j,h,0.43477797508239746,0,False,False,True,1,False
229,1,"{'probs': (0.8, 0.2), 'actions': ['j', 'k']}",k,k,0.45812201499938965,1,True,True,True,0,True
230,1,"{'probs': (0.8, 0.2), 'actions': ['j', 'k']}",j,j,0.40686893463134766,0,True,True,True,0,False
231,1,"{'probs': (0.8, 0.2), 'actions': ['j', 'k']}",j,j,0.39479613304138184,0,True,True,True,0,False
232,1,"{'probs': (0.8, 0.2), 'actions': ['j', 'k']}",j,j,0.5794270038604736,0,True,True,True,0,False
233,1,"{'probs': (0.8, 0.2), 'actions': ['j', 'k']}",k,k,0.3879971504211426,1,True,True,True,0,False
234,1,"{'probs': (0.8, 0.2), 'actions': ['j', 'k']}",j,j,0.37871789932250977,0,True,True,True,0,False
235,1,"{'probs': (0.8, 0.2), 'actions': ['j', 'k']}",j,j,0.4866809844970703,0,True,True,True,0,False
236,1,"{'probs': (0.8, 0.2), 'actions': ['j', 'k']}",k,k,0.4162130355834961,1,True,True,True,0,False
237,0,"{'probs': (0.8, 0.2), 'actions': ['j', 'k']}",k,k,0.471189022064209,1,True,True,True,0,False
238,1,"{'probs': (0.8, 0.2), 'actions': ['j', 'k']}",k,k,0.4503200054168701,1,True,True,True,0,False
239,1,"{'probs': (0.8, 0.2), 'actions': ['j', 'k']}",j,j,0.47925496101379395,0,True,True,True,0,False
240,0,"{'probs': (0.8, 0.2), 'actions': ['j', 'k']}",j,j,0.4039931297302246,0,True,True,True,0,False
241,0,"{'probs': (0.8, 0.2), 'actions': ['h', 'l']}",l,k,0.5279331207275391,1,False,False,True,0,False
242,1,"{'probs': (0.8, 0.2), 'actions': ['h', 'l']}",h,h,0.546565055847168,0,True,True,True,1,True
243,0,"{'probs': (0.8, 0.2), 'actions': ['h', 'l']}",h,h,0.4249551296234131,0,True,True,True,1,False
244,1,"{'probs': (0.8, 0.2), 'actions': ['h', 'l']}",h,h,0.4393138885498047,0,True,True,True,1,False
245,1,"{'probs': (0.8, 0.2), 'actions': ['h', 'l']}",l,l,0.37603092193603516,1,True,True,True,1,False
246,1,"{'probs': (0.8, 0.2), 'actions': ['h', 'l']}",l,l,0.5492081642150879,1,True,True,True,1,False
247,0,"{'probs': (0.8, 0.2), 'actions': ['h', 'l']}",h,h,0.49933791160583496,0,True,True,True,1,False
248,1,"{'probs': (0.8, 0.2), 'actions': ['h', 'l']}",h,h,0.5176780223846436,0,True,True,True,1,False
249,1,"{'probs': (0.8, 0.2), 'actions': ['h', 'l']}",l,l,0.41854310035705566,1,True,True,True,1,False
250,1,"{'probs': (0.8, 0.2), 'actions': ['h', 'l']}",h,h,0.38718700408935547,0,True,True,True,1,False
251,1,"{'probs': (0.8, 0.2), 'actions': ['h', 'l']}",l,l,0.38005709648132324,1,True,True,True,1,False
252,1,"{'probs': (0.8, 0.2), 'actions': ['h', 'l']}",l,l,0.4068779945373535,1,True,True,True,1,False
253,1,"{'probs': (0.8, 0.2), 'actions': ['h', 'l']}",l,l,0.5396649837493896,1,True,True,True,1,False
254,1,"{'probs': (0.8, 0.2), 'actions': ['h', 'l']}",h,h,0.4853668212890625,0,True,True,True,1,False
255,1,"{'probs': (0.8, 0.2), 'actions': ['h', 'l']}",h,h,0.4827389717102051,0,True,True,True,1,False
256,0,"{'probs': (0.8, 0.2), 'actions': ['j', 'k']}",j,h,0.46835994720458984,0,False,False,True,1,False
257,1,"{'probs': (0.8, 0.2), 'actions': ['j', 'k']}",k,k,0.6389420032501221,1,True,True,True,0,True
258,1,"{'probs': (0.8, 0.2), 'actions': ['j', 'k']}",j,j,0.6177010536193848,0,True,True,True,0,False
259,1,"{'probs': (0.8, 0.2), 'actions': ['j', 'k']}",k,k,0.5007920265197754,1,True,True,True,0,False
260,1,"{'probs': (0.8, 0.2), 'actions': ['j', 'k']}",j,j,0.5052690505981445,0,True,True,True,0,False
261,0,"{'probs': (0.8, 0.2), 'actions': ['j', 'k']}",k,k,0.3242971897125244,1,True,True,True,0,False
262,1,"{'probs': (0.8, 0.2), 'actions': ['j', 'k']}",k,k,0.5315709114074707,1,True,True,True,0,False
263,1,"{'probs': (0.8, 0.2), 'actions': ['j', 'k']}",k,k,0.6051628589630127,1,True,True,True,0,False
264,0,"{'probs': (0.8, 0.2), 'actions': ['j', 'k']}",j,h,0.5956521034240723,0,False,False,True,1,True
265,1,"{'probs': (0.8, 0.2), 'actions': ['j', 'k']}",k,k,0.5006299018859863,1,True,True,True,0,True
266,1,"{'probs': (0.8, 0.2), 'actions': ['j', 'k']}",k,k,0.48711395263671875,1,True,True,True,0,False
267,0,"{'probs': (0.8, 0.2), 'actions': ['j', 'k']}",j,j,0.34060096740722656,0,True,True,True,0,False
268,1,"{'probs': (0.8, 0.2), 'actions': ['j', 'k']}",j,j,0.8234481811523438,0,True,True,True,0,False
269,1,"{'probs': (0.8, 0.2), 'actions': ['j', 'k']}",j,j,0.5113070011138916,0,True,True,True,0,False
270,1,"{'probs': (0.8, 0.2), 'actions': ['j', 'k']}",k,k,0.39496397972106934,1,True,True,True,0,False
271,1,"{'probs': (0.8, 0.2), 'actions': ['h', 'l']}",h,j,0.4359738826751709,0,False,False,True,0,False
272,1,"{'probs': (0.8, 0.2), 'actions': ['h', 'l']}",h,j,0.43297386169433594,0,False,False,True,0,False
273,0,"{'probs': (0.8, 0.2), 'actions': ['h', 'l']}",l,k,0.34250783920288086,1,False,False,True,0,False
274,1,"{'probs': (0.8, 0.2), 'actions': ['h', 'l']}",l,l,0.5548698902130127,1,True,True,True,1,True
275,1,"{'probs': (0.8, 0.2), 'actions': ['h', 'l']}",h,h,0.4031360149383545,0,True,True,True,1,False
276,1,"{'probs': (0.8, 0.2), 'actions': ['h', 'l']}",l,l,0.4240720272064209,1,True,True,True,1,False
277,1,"{'probs': (0.8, 0.2), 'actions': ['h', 'l']}",l,l,0.45896005630493164,1,True,True,True,1,False
278,1,"{'probs': (0.8, 0.2), 'actions': ['h', 'l']}",h,h,0.37551212310791016,0,True,True,True,1,False
279,1,"{'probs': (0.8, 0.2), 'actions': ['h', 'l']}",l,l,0.5554721355438232,1,True,True,True,1,False
280,1,"{'probs': (0.8, 0.2), 'actions': ['h', 'l']}",h,h,0.3901350498199463,0,True,True,True,1,False
281,1,"{'probs': (0.8, 0.2), 'actions': ['h', 'l']}",h,h,0.5465309619903564,0,True,True,True,1,False
282,1,"{'probs': (0.8, 0.2), 'actions': ['h', 'l']}",l,l,0.5816121101379395,1,True,True,True,1,False
283,1,"{'probs': (0.8, 0.2), 'actions': ['h', 'l']}",h,h,0.4378218650817871,0,True,True,True,1,False
284,1,"{'probs': (0.8, 0.2), 'actions': ['h', 'l']}",l,l,0.503173828125,1,True,True,True,1,False
285,0,"{'probs': (0.8, 0.2), 'actions': ['h', 'l']}",h,h,0.46762704849243164,0,True,True,True,1,False
286,0,"{'probs': (0.8, 0.2), 'actions': ['j', 'k']}",k,l,0.43499207496643066,1,False,False,True,1,False
287,1,"{'probs': (0.8, 0.2), 'actions': ['j', 'k']}",j,h,0.44092893600463867,0,False,False,True,1,False
288,0,"{'probs': (0.8, 0.2), 'actions': ['j', 'k']}",k,l,0.38027000427246094,1,False,False,True,1,False
289,0,"{'probs': (0.8, 0.2), 'actions': ['j', 'k']}",j,h,0.40183305740356445,0,False,False,True,1,False
290,1,"{'probs': (0.8, 0.2), 'actions': ['j', 'k']}",j,j,0.5414330959320068,0,True,True,True,0,True
291,1,"{'probs': (0.8, 0.2), 'actions': ['j', 'k']}",k,k,0.5344610214233398,1,True,True,True,0,False
292,0,"{'probs': (0.8, 0.2), 'actions': ['j', 'k']}",j,j,0.4368588924407959,0,True,True,True,0,False
293,1,"{'probs': (0.8, 0.2), 'actions': ['j', 'k']}",k,k,0.5688159465789795,1,True,True,True,0,False
294,0,"{'probs': (0.8, 0.2), 'actions': ['j', 'k']}",k,k,0.4495549201965332,1,True,True,True,0,False
295,0,"{'probs': (0.8, 0.2), 'actions': ['j', 'k']}",k,j,0.3406531810760498,1,False,True,False,0,False
296,1,"{'probs': (0.8, 0.2), 'actions': ['j', 'k']}",j,j,0.3388969898223877,0,True,True,True,0,False
297,1,"{'probs': (0.8, 0.2), 'actions': ['j', 'k']}",j,j,0.563831090927124,0,True,True,True,0,False
298,1,"{'probs': (0.8, 0.2), 'actions': ['j', 'k']}",j,j,0.5362210273742676,0,True,True,True,0,False
299,1,"{'probs': (0.8, 0.2), 'actions': ['j', 'k']}",k,k,0.43543410301208496,1,True,True,True,0,False
300,1,"{'probs': (0.8, 0.2), 'actions': ['j', 'k']}",j,j,0.49279212951660156,0,True,True,True,0,False
301,1,"{'probs': (0.8, 0.2), 'actions': ['h', 'l']}",l,k,0.38704514503479004,1,False,False,True,0,False
302,0,"{'probs': (0.8, 0.2), 'actions': ['h', 'l']}",l,k,0.6043782234191895,1,False,False,True,0,False
303,0,"{'probs': (0.8, 0.2), 'actions': ['h', 'l']}",h,j,0.3929109573364258,0,False,False,True,0,False
304,0,"{'probs': (0.8, 0.2), 'actions': ['h', 'l']}",l,l,0.45744919776916504,1,True,True,True,1,True
305,0,"{'probs': (0.8, 0.2), 'actions': ['h', 'l']}",l,l,0.4810302257537842,1,True,True,True,1,False
306,1,"{'probs': (0.8, 0.2), 'actions': ['h', 'l']}",h,h,0.4761788845062256,0,True,True,True,1,False
307,1,"{'probs': (0.8, 0.2), 'actions': ['h', 'l']}",l,l,0.9196560382843018,1,True,True,True,1,False
308,1,"{'probs': (0.8, 0.2), 'actions': ['h', 'l']}",h,h,0.4480130672454834,0,True,True,True,1,False
309,0,"{'probs': (0.8, 0.2), 'actions': ['h', 'l']}",l,l,0.5733211040496826,1,True,True,True,1,False
310,1,"{'probs': (0.8, 0.2), 'actions': ['h', 'l']}",h,h,0.38127994537353516,0,True,True,True,1,False
311,1,"{'probs': (0.8, 0.2), 'actions': ['h', 'l']}",h,h,0.4758598804473877,0,True,True,True,1,False
312,1,"{'probs': (0.8, 0.2), 'actions': ['h', 'l']}",l,l,0.4640190601348877,1,True,True,True,1,False
313,0,"{'probs': (0.8, 0.2), 'actions': ['h', 'l']}",l,l,0.4743618965148926,1,True,True,True,1,False
314,1,"{'probs': (0.8, 0.2), 'actions': ['h', 'l']}",h,h,0.4369211196899414,0,True,True,True,1,False
315,1,"{'probs': (0.8, 0.2), 'actions': ['h', 'l']}",h,h,0.5647540092468262,0,True,True,True,1,False
316,0,"{'probs': (0.8, 0.2), 'actions': ['j', 'k']}",k,l,0.7486097812652588,1,False,False,True,1,False
317,0,"{'probs': (0.8, 0.2), 'actions': ['j', 'k']}",j,h,0.5489699840545654,0,False,False,True,1,False
318,0,"{'probs': (0.8, 0.2), 'actions': ['j', 'k']}",k,l,0.5510139465332031,1,False,False,True,1,False
319,1,"{'probs': (0.8, 0.2), 'actions': ['j', 'k']}",j,h,0.4017770290374756,0,False,False,True,1,False
320,1,"{'probs': (0.8, 0.2), 'actions': ['j', 'k']}",j,h,0.47639918327331543,0,False,False,True,1,False
321,0,"{'probs': (0.8, 0.2), 'actions': ['j', 'k']}",k,l,0.4886589050292969,1,False,False,True,1,False
322,1,"{'probs': (0.8, 0.2), 'actions': ['j', 'k']}",j,j,0.7070319652557373,0,True,True,True,0,True
323,1,"{'probs': (0.8, 0.2), 'actions': ['j', 'k']}",k,k,0.4292330741882324,1,True,True,True,0,False
324,1,"{'probs': (0.8, 0.2), 'actions': ['j', 'k']}",k,k,0.6356871128082275,1,True,True,True,0,False
325,1,"{'probs': (0.8, 0.2), 'actions': ['j', 'k']}",j,j,0.423969030380249,0,True,True,True,0,False
326,1,"{'probs': (0.8, 0.2), 'actions': ['j', 'k']}",k,k,0.4474070072174072,1,True,True,True,0,False
327,0,"{'probs': (0.8, 0.2), 'actions': ['j', 'k']}",k,k,0.6926660537719727,1,True,True,True,0,False
328,1,"{'probs': (0.8, 0.2), 'actions': ['j', 'k']}",j,j,0.2918109893798828,0,True,True,True,0,False
329,0,"{'probs': (0.8, 0.2), 'actions': ['j', 'k']}",j,j,0.5016429424285889,0,True,True,True,0,False
330,0,"{'probs': (0.8, 0.2), 'actions': ['j', 'k']}",k,k,0.5031948089599609,1,True,True,True,0,False
331,0,"{'probs': (0.8, 0.2), 'actions': ['h', 'l']}",h,j,0.3677840232849121,0,False,False,True,0,False
332,0,"{'probs': (0.8, 0.2), 'actions': ['h', 'l']}",l,k,0.3050968647003174,1,False,False,True,0,False
333,0,"{'probs': (0.8, 0.2), 'actions': ['h', 'l']}",h,j,0.3734090328216553,0,False,False,True,0,False
334,0,"{'probs': (0.8, 0.2), 'actions': ['h', 'l']}",l,k,0.3734149932861328,1,False,False,True,0,False
335,1,"{'probs': (0.8, 0.2), 'actions': ['h', 'l']}",h,h,0.37779903411865234,0,True,True,True,1,True
336,1,"{'probs': (0.8, 0.2), 'actions': ['h', 'l']}",l,l,0.4596519470214844,1,True,True,True,1,False
337,1,"{'probs': (0.8, 0.2), 'actions': ['h', 'l']}",h,h,0.4643590450286865,0,True,True,True,1,False
338,1,"{'probs': (0.8, 0.2), 'actions': ['h', 'l']}",l,l,0.3604550361633301,1,True,True,True,1,False
339,1,"{'probs': (0.8, 0.2), 'actions': ['h', 'l']}",l,l,0.4360218048095703,1,True,True,True,1,False
340,1,"{'probs': (0.8, 0.2), 'actions': ['h', 'l']}",h,h,0.36782383918762207,0,True,True,True,1,False
341,1,"{'probs': (0.8, 0.2), 'actions': ['h', 'l']}",h,h,0.45871901512145996,0,True,True,True,1,False
342,0,"{'probs': (0.8, 0.2), 'actions': ['h', 'l']}",h,h,0.45432591438293457,0,True,True,True,1,False
343,1,"{'probs': (0.8, 0.2), 'actions': ['h', 'l']}",l,l,0.3361489772796631,1,True,True,True,1,False
344,1,"{'probs': (0.8, 0.2), 'actions': ['h', 'l']}",h,h,0.4656949043273926,0,True,True,True,1,False
345,0,"{'probs': (0.8, 0.2), 'actions': ['h', 'l']}",h,h,0.47083497047424316,0,True,True,True,1,False
346,0,"{'probs': (0.8, 0.2), 'actions': ['j', 'k']}",k,l,0.4358987808227539,1,False,False,True,1,False
347,1,"{'probs': (0.8, 0.2), 'actions': ['j', 'k']}",j,j,0.3412442207336426,0,True,True,True,0,True
348,1,"{'probs': (0.8, 0.2), 'actions': ['j', 'k']}",k,k,0.3129899501800537,1,True,True,True,0,False
349,1,"{'probs': (0.8, 0.2), 'actions': ['j', 'k']}",k,k,0.5891327857971191,1,True,True,True,0,False
350,1,"{'probs': (0.8, 0.2), 'actions': ['j', 'k']}",k,k,0.5106549263000488,1,True,True,True,0,False
351,1,"{'probs': (0.8, 0.2), 'actions': ['j', 'k']}",j,j,0.44783496856689453,0,True,True,True,0,False
352,1,"{'probs': (0.8, 0.2), 'actions': ['j', 'k']}",j,j,0.5368390083312988,0,True,True,True,0,False
353,1,"{'probs': (0.8, 0.2), 'actions': ['j', 'k']}",j,j,0.46875786781311035,0,True,True,True,0,False
354,1,"{'probs': (0.8, 0.2), 'actions': ['j', 'k']}",k,k,0.497952938079834,1,True,True,True,0,False
355,1,"{'probs': (0.8, 0.2), 'actions': ['j', 'k']}",j,j,0.5074920654296875,0,True,True,True,0,False
356,0,"{'probs': (0.8, 0.2), 'actions': ['j', 'k']}",j,j,0.43772220611572266,0,True,True,True,0,False
357,1,"{'probs': (0.8, 0.2), 'actions': ['j', 'k']}",k,k,0.5296869277954102,1,True,True,True,0,False
358,0,"{'probs': (0.8, 0.2), 'actions': ['j', 'k']}",j,j,0.4890780448913574,0,True,True,True,0,False
359,1,"{'probs': (0.8, 0.2), 'actions': ['j', 'k']}",j,j,0.40575504302978516,0,True,True,True,0,False
360,1,"{'probs': (0.8, 0.2), 'actions': ['j', 'k']}",j,j,0.4814610481262207,0,True,True,True,0,False
361,0,"{'probs': (0.8, 0.2), 'actions': ['h', 'l']}",h,j,0.5750288963317871,0,False,False,True,0,False
362,1,"{'probs': (0.8, 0.2), 'actions': ['h', 'l']}",h,h,0.40131378173828125,0,True,True,True,1,True
363,1,"{'probs': (0.8, 0.2), 'actions': ['h', 'l']}",l,l,0.7278940677642822,1,True,True,True,1,False
364,0,"{'probs': (0.8, 0.2), 'actions': ['h', 'l']}",l,l,0.9233260154724121,1,True,True,True,1,False
365,1,"{'probs': (0.8, 0.2), 'actions': ['h', 'l']}",l,l,0.5263049602508545,1,True,True,True,1,False
366,1,"{'probs': (0.8, 0.2), 'actions': ['h', 'l']}",h,h,0.46196484565734863,0,True,True,True,1,False
367,1,"{'probs': (0.8, 0.2), 'actions': ['h', 'l']}",l,l,0.39600276947021484,1,True,True,True,1,False
368,0,"{'probs': (0.8, 0.2), 'actions': ['h', 'l']}",l,l,0.41124510765075684,1,True,True,True,1,False
369,1,"{'probs': (0.8, 0.2), 'actions': ['h', 'l']}",h,h,0.4721848964691162,0,True,True,True,1,False
370,1,"{'probs': (0.8, 0.2), 'actions': ['h', 'l']}",l,l,0.45970678329467773,1,True,True,True,1,False
371,1,"{'probs': (0.8, 0.2), 'actions': ['h', 'l']}",h,h,0.4624760150909424,0,True,True,True,1,False
372,1,"{'probs': (0.8, 0.2), 'actions': ['h', 'l']}",l,l,0.4818849563598633,1,True,True,True,1,False
373,1,"{'probs': (0.8, 0.2), 'actions': ['h', 'l']}",h,h,0.4900679588317871,0,True,True,True,1,False
374,1,"{'probs': (0.8, 0.2), 'actions': ['h', 'l']}",h,h,0.45458483695983887,0,True,True,True,1,False
375,1,"{'probs': (0.8, 0.2), 'actions': ['h', 'l']}",l,l,0.3794820308685303,1,True,True,True,1,False
376,0,"{'probs': (0.8, 0.2), 'actions': ['j', 'k']}",k,l,0.5039072036743164,1,False,False,True,1,False
377,0,"{'probs': (0.8, 0.2), 'actions': ['j', 'k']}",j,h,0.4083878993988037,0,False,False,True,1,False
378,0,"{'probs': (0.8, 0.2), 'actions': ['j', 'k']}",k,k,0.8889150619506836,1,True,True,True,0,True
379,1,"{'probs': (0.8, 0.2), 'actions': ['j', 'k']}",j,j,0.4038679599761963,0,True,True,True,0,False
380,1,"{'probs': (0.8, 0.2), 'actions': ['j', 'k']}",k,k,0.6569499969482422,1,True,True,True,0,False
381,1,"{'probs': (0.8, 0.2), 'actions': ['j', 'k']}",j,j,0.5356621742248535,0,True,True,True,0,False
382,1,"{'probs': (0.8, 0.2), 'actions': ['j', 'k']}",k,k,0.44730305671691895,1,True,True,True,0,False
383,1,"{'probs': (0.8, 0.2), 'actions': ['j', 'k']}",j,j,0.5131449699401855,0,True,True,True,0,False
384,1,"{'probs': (0.8, 0.2), 'actions': ['j', 'k']}",k,k,0.4306070804595947,1,True,True,True,0,False
385,1,"{'probs': (0.8, 0.2), 'actions': ['j', 'k']}",j,j,0.42759203910827637,0,True,True,True,0,False
386,1,"{'probs': (0.8, 0.2), 'actions': ['j', 'k']}",k,k,0.3324599266052246,1,True,True,True,0,False
387,0,"{'probs': (0.8, 0.2), 'actions': ['j', 'k']}",k,k,0.4869511127471924,1,True,True,True,0,False
388,1,"{'probs': (0.8, 0.2), 'actions': ['j', 'k']}",j,j,0.3822288513183594,0,True,True,True,0,False
389,1,"{'probs': (0.8, 0.2), 'actions': ['j', 'k']}",k,k,0.44625306129455566,1,True,True,True,0,False
390,1,"{'probs': (0.8, 0.2), 'actions': ['j', 'k']}",j,j,0.43308401107788086,0,True,True,True,0,False
391,0,"{'probs': (0.8, 0.2), 'actions': ['h', 'l']}",h,j,0.5804159641265869,0,False,False,True,0,False
392,1,"{'probs': (0.8, 0.2), 'actions': ['h', 'l']}",h,j,0.50679612159729,0,False,False,True,0,False
393,0,"{'probs': (0.8, 0.2), 'actions': ['h', 'l']}",l,k,0.5210080146789551,1,False,False,True,0,False
394,1,"{'probs': (0.8, 0.2), 'actions': ['h', 'l']}",h,h,0.39093589782714844,0,True,True,True,1,True
395,1,"{'probs': (0.8, 0.2), 'actions': ['h', 'l']}",l,l,0.4135890007019043,1,True,True,True,1,False
396,0,"{'probs': (0.8, 0.2), 'actions': ['h', 'l']}",l,l,0.542410135269165,1,True,True,True,1,False
397,1,"{'probs': (0.8, 0.2), 'actions': ['h', 'l']}",h,h,0.38776302337646484,0,True,True,True,1,False
398,1,"{'probs': (0.8, 0.2), 'actions': ['h', 'l']}",l,l,0.42125487327575684,1,True,True,True,1,False
399,1,"{'probs': (0.8, 0.2), 'actions': ['h', 'l']}",h,h,0.4296298027038574,0,True,True,True,1,False
400,1,"{'probs': (0.8, 0.2), 'actions': ['h', 'l']}",l,l,0.4650459289550781,1,True,True,True,1,False
401,0,"{'probs': (0.8, 0.2), 'actions': ['h', 'l']}",h,h,0.6171000003814697,0,True,True,True,1,False
402,1,"{'probs': (0.8, 0.2), 'actions': ['h', 'l']}",l,l,0.47697901725769043,1,True,True,True,1,False
403,1,"{'probs': (0.8, 0.2), 'actions': ['h', 'l']}",h,h,0.4251267910003662,0,True,True,True,1,False
404,1,"{'probs': (0.8, 0.2), 'actions': ['h', 'l']}",h,h,0.43288111686706543,0,True,True,True,1,False
405,1,"{'probs': (0.8, 0.2), 'actions': ['h', 'l']}",l,l,0.3524971008300781,1,True,True,True,1,False
406,0,"{'probs': (0.8, 0.2), 'actions': ['j', 'k']}",k,l,0.5620930194854736,1,False,False,True,1,False
407,0,"{'probs': (0.8, 0.2), 'actions': ['j', 'k']}",j,h,0.350909948348999,0,False,False,True,1,False
408,0,"{'probs': (0.8, 0.2), 'actions': ['j', 'k']}",j,h,0.4833970069885254,0,False,False,True,1,False
409,1,"{'probs': (0.8, 0.2), 'actions': ['j', 'k']}",j,j,0.48087096214294434,0,True,True,True,0,True
410,1,"{'probs': (0.8, 0.2), 'actions': ['j', 'k']}",k,k,0.3825039863586426,1,True,True,True,0,False
411,0,"{'probs': (0.8, 0.2), 'actions': ['j', 'k']}",j,j,0.47939491271972656,0,True,True,True,0,False
412,1,"{'probs': (0.8, 0.2), 'actions': ['j', 'k']}",k,k,0.3672199249267578,1,True,True,True,0,False
413,1,"{'probs': (0.8, 0.2), 'actions': ['j', 'k']}",k,k,0.767956018447876,1,True,True,True,0,False
414,1,"{'probs': (0.8, 0.2), 'actions': ['j', 'k']}",j,j,0.5805110931396484,0,True,True,True,0,False
415,1,"{'probs': (0.8, 0.2), 'actions': ['j', 'k']}",j,j,0.5127289295196533,0,True,True,True,0,False
416,1,"{'probs': (0.8, 0.2), 'actions': ['j', 'k']}",k,k,0.4364190101623535,1,True,True,True,0,False
417,0,"{'probs': (0.8, 0.2), 'actions': ['j', 'k']}",k,k,0.612968921661377,1,True,True,True,0,False
418,1,"{'probs': (0.8, 0.2), 'actions': ['j', 'k']}",j,j,0.3719921112060547,0,True,True,True,0,False
419,1,"{'probs': (0.8, 0.2), 'actions': ['j', 'k']}",j,j,0.43914198875427246,0,True,True,True,0,False
420,1,"{'probs': (0.8, 0.2), 'actions': ['j', 'k']}",j,j,0.4595310688018799,0,True,True,True,0,False
421,1,"{'probs': (0.8, 0.2), 'actions': ['h', 'l']}",h,j,0.4457411766052246,0,False,False,True,0,False
422,0,"{'probs': (0.8, 0.2), 'actions': ['h', 'l']}",l,k,0.38739705085754395,1,False,False,True,0,False
423,1,"{'probs': (0.8, 0.2), 'actions': ['h', 'l']}",l,l,0.5500679016113281,1,True,True,True,1,True
424,1,"{'probs': (0.8, 0.2), 'actions': ['h', 'l']}",l,l,0.7322661876678467,1,True,True,True,1,False
425,1,"{'probs': (0.8, 0.2), 'actions': ['h', 'l']}",h,h,0.46282505989074707,0,True,True,True,1,False
426,1,"{'probs': (0.8, 0.2), 'actions': ['h', 'l']}",l,l,0.5388410091400146,1,True,True,True,1,False
427,1,"{'probs': (0.8, 0.2), 'actions': ['h', 'l']}",h,h,0.4389078617095947,0,True,True,True,1,False
428,0,"{'probs': (0.8, 0.2), 'actions': ['h', 'l']}",h,h,0.4665510654449463,0,True,True,True,1,False
429,1,"{'probs': (0.8, 0.2), 'actions': ['h', 'l']}",h,h,0.4843888282775879,0,True,True,True,1,False
430,0,"{'probs': (0.8, 0.2), 'actions': ['h', 'l']}",l,l,0.4483351707458496,1,True,True,True,1,False
431,0,"{'probs': (0.8, 0.2), 'actions': ['h', 'l']}",h,h,0.3854999542236328,0,True,True,True,1,False
432,1,"{'probs': (0.8, 0.2), 'actions': ['h', 'l']}",l,l,0.5752091407775879,1,True,True,True,1,False
433,1,"{'probs': (0.8, 0.2), 'actions': ['h', 'l']}",l,l,0.5849459171295166,1,True,True,True,1,False
434,1,"{'probs': (0.8, 0.2), 'actions': ['h', 'l']}",l,l,0.4210948944091797,1,True,True,True,1,False
435,1,"{'probs': (0.8, 0.2), 'actions': ['h', 'l']}",l,l,0.4730238914489746,1,True,True,True,1,False
436,0,"{'probs': (0.8, 0.2), 'actions': ['j', 'k']}",j,h,0.39675188064575195,0,False,False,True,1,False
437,0,"{'probs': (0.8, 0.2), 'actions': ['j', 'k']}",k,l,0.3622751235961914,1,False,False,True,1,False
438,1,"{'probs': (0.8, 0.2), 'actions': ['j', 'k']}",k,k,0.4899148941040039,1,True,True,True,0,True
439,1,"{'probs': (0.8, 0.2), 'actions': ['j', 'k']}",j,j,0.5162088871002197,0,True,True,True,0,False
440,0,"{'probs': (0.8, 0.2), 'actions': ['j', 'k']}",k,k,0.682279109954834,1,True,True,True,0,False
441,0,"{'probs': (0.8, 0.2), 'actions': ['j', 'k']}",k,k,0.48062705993652344,1,True,True,True,0,False
442,1,"{'probs': (0.8, 0.2), 'actions': ['j', 'k']}",j,j,0.381166934967041,0,True,True,True,0,False
443,1,"{'probs': (0.8, 0.2), 'actions': ['j', 'k']}",k,k,0.43735814094543457,1,True,True,True,0,False
444,1,"{'probs': (0.8, 0.2), 'actions': ['j', 'k']}",k,k,0.5047590732574463,1,True,True,True,0,False
445,1,"{'probs': (0.8, 0.2), 'actions': ['j', 'k']}",k,k,0.49402403831481934,1,True,True,True,0,False
446,1,"{'probs': (0.8, 0.2), 'actions': ['j', 'k']}",j,j,0.34308505058288574,0,True,True,True,0,False
447,1,"{'probs': (0.8, 0.2), 'actions': ['j', 'k']}",j,j,0.5363199710845947,0,True,True,True,0,False
448,1,"{'probs': (0.8, 0.2), 'actions': ['j', 'k']}",j,j,0.4980490207672119,0,True,True,True,0,False
449,1,"{'probs': (0.8, 0.2), 'actions': ['j', 'k']}",k,k,0.39742588996887207,1,True,True,True,0,False
450,0,"{'probs': (0.8, 0.2), 'actions': ['j', 'k']}",j,j,0.3467600345611572,0,True,True,True,0,False
451,1,"{'probs': (0.8, 0.2), 'actions': ['h', 'l']}",h,h,0.39771389961242676,0,True,True,True,1,True
452,1,"{'probs': (0.8, 0.2), 'actions': ['h', 'l']}",l,l,0.5136129856109619,1,True,True,True,1,False
453,1,"{'probs': (0.8, 0.2), 'actions': ['h', 'l']}",h,h,0.5153980255126953,0,True,True,True,1,False
454,1,"{'probs': (0.8, 0.2), 'actions': ['h', 'l']}",l,l,0.46733999252319336,1,True,True,True,1,False
455,1,"{'probs': (0.8, 0.2), 'actions': ['h', 'l']}",h,h,0.38642096519470215,0,True,True,True,1,False
456,1,"{'probs': (0.8, 0.2), 'actions': ['h', 'l']}",h,h,0.4233701229095459,0,True,True,True,1,False
457,0,"{'probs': (0.8, 0.2), 'actions': ['h', 'l']}",h,h,0.45099806785583496,0,True,True,True,1,False
458,1,"{'probs': (0.8, 0.2), 'actions': ['h', 'l']}",l,l,0.3262619972229004,1,True,True,True,1,False
459,1,"{'probs': (0.8, 0.2), 'actions': ['h', 'l']}",h,h,0.36560487747192383,0,True,True,True,1,False
460,1,"{'probs': (0.8, 0.2), 'actions': ['h', 'l']}",l,l,0.4176509380340576,1,True,True,True,1,False
461,0,"{'probs': (0.8, 0.2), 'actions': ['h', 'l']}",l,l,0.46361207962036133,1,True,True,True,1,False
462,0,"{'probs': (0.8, 0.2), 'actions': ['h', 'l']}",h,h,0.3078930377960205,0,True,True,True,1,False
463,1,"{'probs': (0.8, 0.2), 'actions': ['h', 'l']}",l,l,0.4081308841705322,1,True,True,True,1,False
464,1,"{'probs': (0.8, 0.2), 'actions': ['h', 'l']}",h,h,0.40410304069519043,0,True,True,True,1,False
465,1,"{'probs': (0.8, 0.2), 'actions': ['h', 'l']}",l,l,0.3643338680267334,1,True,True,True,1,False
466,0,"{'probs': (0.8, 0.2), 'actions': ['j', 'k']}",k,k,0.42783498764038086,1,True,True,True,0,True
467,1,"{'probs': (0.8, 0.2), 'actions': ['j', 'k']}",k,k,0.5026419162750244,1,True,True,True,0,False
468,1,"{'probs': (0.8, 0.2), 'actions': ['j', 'k']}",j,j,0.6298680305480957,0,True,True,True,0,False
469,1,"{'probs': (0.8, 0.2), 'actions': ['j', 'k']}",j,j,0.4861011505126953,0,True,True,True,0,False
470,1,"{'probs': (0.8, 0.2), 'actions': ['j', 'k']}",j,j,0.4560830593109131,0,True,True,True,0,False
471,1,"{'probs': (0.8, 0.2), 'actions': ['j', 'k']}",k,k,0.3633859157562256,1,True,True,True,0,False
472,1,"{'probs': (0.8, 0.2), 'actions': ['j', 'k']}",k,k,0.3738720417022705,1,True,True,True,0,False
473,1,"{'probs': (0.8, 0.2), 'actions': ['j', 'k']}",j,j,0.4020209312438965,0,True,True,True,0,False
474,0,"{'probs': (0.8, 0.2), 'actions': ['j', 'k']}",j,j,0.44290709495544434,0,True,True,True,0,False
475,1,"{'probs': (0.8, 0.2), 'actions': ['j', 'k']}",k,k,0.46382594108581543,1,True,True,True,0,False
476,0,"{'probs': (0.8, 0.2), 'actions': ['j', 'k']}",k,k,0.4877800941467285,1,True,True,True,0,False
477,1,"{'probs': (0.8, 0.2), 'actions': ['j', 'k']}",j,j,0.31798386573791504,0,True,True,True,0,False
478,1,"{'probs': (0.8, 0.2), 'actions': ['j', 'k']}",j,j,0.4337470531463623,0,True,True,True,0,False
479,1,"{'probs': (0.8, 0.2), 'actions': ['j', 'k']}",j,j,0.36874890327453613,0,True,True,True,0,False
480,1,"{'probs': (0.8, 0.2), 'actions': ['j', 'k']}",k,k,0.44718289375305176,1,True,True,True,0,False
481,0,"{'probs': (0.8, 0.2), 'actions': ['h', 'l']}",l,k,0.45868992805480957,1,False,False,True,0,False
482,0,"{'probs': (0.8, 0.2), 'actions': ['h', 'l']}",h,j,0.3648340702056885,0,False,False,True,0,False
483,0,"{'probs': (0.8, 0.2), 'actions': ['h', 'l']}",l,l,0.6226959228515625,1,True,True,True,1,True
484,1,"{'probs': (0.8, 0.2), 'actions': ['h', 'l']}",h,h,0.3438870906829834,0,True,True,True,1,False
485,1,"{'probs': (0.8, 0.2), 'actions': ['h', 'l']}",l,l,0.5567970275878906,1,True,True,True,1,False
486,1,"{'probs': (0.8, 0.2), 'actions': ['h', 'l']}",l,l,0.4399409294128418,1,True,True,True,1,False
487,1,"{'probs': (0.8, 0.2), 'actions': ['h', 'l']}",h,h,0.41094112396240234,0,True,True,True,1,False
488,1,"{'probs': (0.8, 0.2), 'actions': ['h', 'l']}",h,h,0.42798805236816406,0,True,True,True,1,False
489,1,"{'probs': (0.8, 0.2), 'actions': ['h', 'l']}",h,h,0.43041300773620605,0,True,True,True,1,False
490,1,"{'probs': (0.8, 0.2), 'actions': ['h', 'l']}",l,l,0.4296860694885254,1,True,True,True,1,False
491,1,"{'probs': (0.8, 0.2), 'actions': ['h', 'l']}",l,l,0.46883702278137207,1,True,True,True,1,False
492,0,"{'probs': (0.8, 0.2), 'actions': ['h', 'l']}",l,l,0.4976508617401123,1,True,True,True,1,False
493,1,"{'probs': (0.8, 0.2), 'actions': ['h', 'l']}",h,h,0.3870391845703125,0,True,True,True,1,False
494,0,"{'probs': (0.8, 0.2), 'actions': ['h', 'l']}",h,l,0.3087129592895508,0,False,True,False,1,False
495,1,"{'probs': (0.8, 0.2), 'actions': ['h', 'l']}",l,l,0.32370591163635254,1,True,True,True,1,False
496,0,"{'probs': (0.8, 0.2), 'actions': ['j', 'k']}",k,l,0.45403289794921875,1,False,False,True,1,False
497,0,"{'probs': (0.8, 0.2), 'actions': ['j', 'k']}",j,j,0.37296009063720703,0,True,True,True,0,True
498,1,"{'probs': (0.8, 0.2), 'actions': ['j', 'k']}",j,j,0.5357828140258789,0,True,True,True,0,False
499,0,"{'probs': (0.8, 0.2), 'actions': ['j', 'k']}",k,k,0.4570128917694092,1,True,True,True,0,False
500,1,"{'probs': (0.8, 0.2), 'actions': ['j', 'k']}",k,k,0.4896419048309326,1,True,True,True,0,False
501,1,"{'probs': (0.8, 0.2), 'actions': ['j', 'k']}",j,j,0.38322997093200684,0,True,True,True,0,False
502,0,"{'probs': (0.8, 0.2), 'actions': ['j', 'k']}",k,k,0.39237213134765625,1,True,True,True,0,False
503,1,"{'probs': (0.8, 0.2), 'actions': ['j', 'k']}",j,j,0.3464488983154297,0,True,True,True,0,False
504,1,"{'probs': (0.8, 0.2), 'actions': ['j', 'k']}",k,k,0.3200390338897705,1,True,True,True,0,False
505,1,"{'probs': (0.8, 0.2), 'actions': ['j', 'k']}",j,j,0.37816691398620605,0,True,True,True,0,False
506,1,"{'probs': (0.8, 0.2), 'actions': ['j', 'k']}",k,k,0.5043680667877197,1,True,True,True,0,False
507,0,"{'probs': (0.8, 0.2), 'actions': ['j', 'k']}",j,j,0.34987783432006836,0,True,True,True,0,False
508,1,"{'probs': (0.8, 0.2), 'actions': ['j', 'k']}",j,j,0.42764806747436523,0,True,True,True,0,False
509,1,"{'probs': (0.8, 0.2), 'actions': ['j', 'k']}",j,j,0.4742770195007324,0,True,True,True,0,False
510,1,"{'probs': (0.8, 0.2), 'actions': ['j', 'k']}",j,j,0.3948531150817871,0,True,True,True,0,False
511,0,"{'probs': (0.8, 0.2), 'actions': ['h', 'l']}",l,k,0.3205599784851074,1,False,False,True,0,False
512,1,"{'probs': (0.8, 0.2), 'actions': ['h', 'l']}",h,h,0.3858530521392822,0,True,True,True,1,True
513,1,"{'probs': (0.8, 0.2), 'actions': ['h', 'l']}",l,l,0.3324429988861084,1,True,True,True,1,False
514,1,"{'probs': (0.8, 0.2), 'actions': ['h', 'l']}",l,l,0.5637049674987793,1,True,True,True,1,False
515,1,"{'probs': (0.8, 0.2), 'actions': ['h', 'l']}",l,l,0.4355309009552002,1,True,True,True,1,False
516,0,"{'probs': (0.8, 0.2), 'actions': ['h', 'l']}",h,h,0.36065196990966797,0,True,True,True,1,False
517,1,"{'probs': (0.8, 0.2), 'actions': ['h', 'l']}",l,l,0.4925079345703125,1,True,True,True,1,False
518,1,"{'probs': (0.8, 0.2), 'actions': ['h', 'l']}",h,h,0.5043349266052246,0,True,True,True,1,False
519,1,"{'probs': (0.8, 0.2), 'actions': ['h', 'l']}",l,l,0.4297349452972412,1,True,True,True,1,False
520,1,"{'probs': (0.8, 0.2), 'actions': ['h', 'l']}",l,l,0.4457700252532959,1,True,True,True,1,False
521,0,"{'probs': (0.8, 0.2), 'actions': ['h', 'l']}",l,l,0.5310602188110352,1,True,True,True,1,False
522,1,"{'probs': (0.8, 0.2), 'actions': ['h', 'l']}",h,h,0.35227394104003906,0,True,True,True,1,False
523,1,"{'probs': (0.8, 0.2), 'actions': ['h', 'l']}",l,l,0.3249528408050537,1,True,True,True,1,False
524,1,"{'probs': (0.8, 0.2), 'actions': ['h', 'l']}",h,h,0.34429192543029785,0,True,True,True,1,False
525,1,"{'probs': (0.8, 0.2), 'actions': ['h', 'l']}",h,h,0.44463610649108887,0,True,True,True,1,False
526,1,"{'probs': (0.8, 0.2), 'actions': ['j', 'k']}",k,l,0.329301118850708,1,False,False,True,1,False
527,1,"{'probs': (0.8, 0.2), 'actions': ['j', 'k']}",k,k,0.43982386589050293,1,True,True,True,0,True
528,1,"{'probs': (0.8, 0.2), 'actions': ['j', 'k']}",k,k,0.4846198558807373,1,True,True,True,0,False
529,1,"{'probs': (0.8, 0.2), 'actions': ['j', 'k']}",j,j,0.3636479377746582,0,True,True,True,0,False
530,1,"{'probs': (0.8, 0.2), 'actions': ['j', 'k']}",k,k,0.5769650936126709,1,True,True,True,0,False
531,0,"{'probs': (0.8, 0.2), 'actions': ['j', 'k']}",j,j,0.3362691402435303,0,True,True,True,0,False
532,1,"{'probs': (0.8, 0.2), 'actions': ['j', 'k']}",k,k,0.4698660373687744,1,True,True,True,0,False
533,0,"{'probs': (0.8, 0.2), 'actions': ['j', 'k']}",k,j,0.3457069396972656,1,False,True,False,0,False
534,1,"{'probs': (0.8, 0.2), 'actions': ['j', 'k']}",j,j,0.33986711502075195,0,True,True,True,0,False
535,1,"{'probs': (0.8, 0.2), 'actions': ['j', 'k']}",k,k,0.3516099452972412,1,True,True,True,0,False
536,1,"{'probs': (0.8, 0.2), 'actions': ['j', 'k']}",j,j,0.48563098907470703,0,True,True,True,0,False
537,1,"{'probs': (0.8, 0.2), 'actions': ['j', 'k']}",j,j,0.6184520721435547,0,True,True,True,0,False
538,0,"{'probs': (0.8, 0.2), 'actions': ['j', 'k']}",k,k,0.48592400550842285,1,True,True,True,0,False
539,1,"{'probs': (0.8, 0.2), 'actions': ['j', 'k']}",j,j,0.4043271541595459,0,True,True,True,0,False
540,1,"{'probs': (0.8, 0.2), 'actions': ['j', 'k']}",k,k,0.34201598167419434,1,True,True,True,0,False
541,0,"{'probs': (0.8, 0.2), 'actions': ['h', 'l']}",h,j,0.3882029056549072,0,False,False,True,0,False
542,0,"{'probs': (0.8, 0.2), 'actions': ['h', 'l']}",l,k,0.35797691345214844,1,False,False,True,0,False
543,0,"{'probs': (0.8, 0.2), 'actions': ['h', 'l']}",h,h,0.37091493606567383,0,True,True,True,1,True
544,0,"{'probs': (0.8, 0.2), 'actions': ['h', 'l']}",h,h,0.46294116973876953,0,True,True,True,1,False
545,1,"{'probs': (0.8, 0.2), 'actions': ['h', 'l']}",l,l,0.5049619674682617,1,True,True,True,1,False
546,1,"{'probs': (0.8, 0.2), 'actions': ['h', 'l']}",h,h,0.39174413681030273,0,True,True,True,1,False
547,1,"{'probs': (0.8, 0.2), 'actions': ['h', 'l']}",h,h,0.4560420513153076,0,True,True,True,1,False
548,1,"{'probs': (0.8, 0.2), 'actions': ['h', 'l']}",h,h,0.4207611083984375,0,True,True,True,1,False
549,1,"{'probs': (0.8, 0.2), 'actions': ['h', 'l']}",l,l,0.3505220413208008,1,True,True,True,1,False
550,0,"{'probs': (0.8, 0.2), 'actions': ['h', 'l']}",l,l,0.3972618579864502,1,True,True,True,1,False
551,1,"{'probs': (0.8, 0.2), 'actions': ['h', 'l']}",l,l,0.5849740505218506,1,True,True,True,1,False
552,1,"{'probs': (0.8, 0.2), 'actions': ['h', 'l']}",h,h,0.49066877365112305,0,True,True,True,1,False
553,1,"{'probs': (0.8, 0.2), 'actions': ['h', 'l']}",l,l,0.43076205253601074,1,True,True,True,1,False
554,1,"{'probs': (0.8, 0.2), 'actions': ['h', 'l']}",h,h,0.4357318878173828,0,True,True,True,1,False
555,1,"{'probs': (0.8, 0.2), 'actions': ['h', 'l']}",l,l,0.4163649082183838,1,True,True,True,1,False
556,0,"{'probs': (0.8, 0.2), 'actions': ['j', 'k']}",j,h,0.5149331092834473,0,False,False,True,1,False
557,0,"{'probs': (0.8, 0.2), 'actions': ['j', 'k']}",j,h,0.5312931537628174,0,False,False,True,1,False
558,1,"{'probs': (0.8, 0.2), 'actions': ['j', 'k']}",k,l,0.47549891471862793,1,False,False,True,1,False
559,1,"{'probs': (0.8, 0.2), 'actions': ['j', 'k']}",k,k,0.4295840263366699,1,True,True,True,0,True
560,1,"{'probs': (0.8, 0.2), 'actions': ['j', 'k']}",j,j,0.41847705841064453,0,True,True,True,0,False
561,1,"{'probs': (0.8, 0.2), 'actions': ['j', 'k']}",j,j,0.6741089820861816,0,True,True,True,0,False
562,1,"{'probs': (0.8, 0.2), 'actions': ['j', 'k']}",k,k,0.4072699546813965,1,True,True,True,0,False
563,1,"{'probs': (0.8, 0.2), 'actions': ['j', 'k']}",j,j,0.44620704650878906,0,True,True,True,0,False
564,1,"{'probs': (0.8, 0.2), 'actions': ['j', 'k']}",j,j,0.552480936050415,0,True,True,True,0,False
565,1,"{'probs': (0.8, 0.2), 'actions': ['j', 'k']}",k,k,0.5146300792694092,1,True,True,True,0,False
566,1,"{'probs': (0.8, 0.2), 'actions': ['j', 'k']}",k,k,0.6295459270477295,1,True,True,True,0,False
567,1,"{'probs': (0.8, 0.2), 'actions': ['j', 'k']}",j,j,0.354280948638916,0,True,True,True,0,False
568,1,"{'probs': (0.8, 0.2), 'actions': ['j', 'k']}",k,k,0.4040648937225342,1,True,True,True,0,False
569,1,"{'probs': (0.8, 0.2), 'actions': ['j', 'k']}",j,j,0.3524210453033447,0,True,True,True,0,False
570,1,"{'probs': (0.8, 0.2), 'actions': ['j', 'k']}",j,j,0.41019701957702637,0,True,True,True,0,False
571,0,"{'probs': (0.8, 0.2), 'actions': ['h', 'l']}",h,j,0.3930649757385254,0,False,False,True,0,False
572,0,"{'probs': (0.8, 0.2), 'actions': ['h', 'l']}",l,k,0.3246450424194336,1,False,False,True,0,False
573,0,"{'probs': (0.8, 0.2), 'actions': ['h', 'l']}",l,k,0.43939805030822754,1,False,False,True,0,False
574,0,"{'probs': (0.8, 0.2), 'actions': ['h', 'l']}",h,j,0.36910009384155273,0,False,False,True,0,False
575,0,"{'probs': (0.8, 0.2), 'actions': ['h', 'l']}",l,l,0.5732109546661377,1,True,True,True,1,True
576,1,"{'probs': (0.8, 0.2), 'actions': ['h', 'l']}",l,l,0.5956568717956543,1,True,True,True,1,False
577,1,"{'probs': (0.8, 0.2), 'actions': ['h', 'l']}",l,l,0.5603888034820557,1,True,True,True,1,False
578,1,"{'probs': (0.8, 0.2), 'actions': ['h', 'l']}",h,h,0.49689483642578125,0,True,True,True,1,False
579,1,"{'probs': (0.8, 0.2), 'actions': ['h', 'l']}",h,h,0.47144198417663574,0,True,True,True,1,False
580,1,"{'probs': (0.8, 0.2), 'actions': ['h', 'l']}",h,h,0.38890504837036133,0,True,True,True,1,False
581,0,"{'probs': (0.8, 0.2), 'actions': ['h', 'l']}",l,l,0.4883289337158203,1,True,True,True,1,False
582,1,"{'probs': (0.8, 0.2), 'actions': ['h', 'l']}",h,h,0.352039098739624,0,True,True,True,1,False
583,1,"{'probs': (0.8, 0.2), 'actions': ['h', 'l']}",h,h,0.40287017822265625,0,True,True,True,1,False
584,1,"{'probs': (0.8, 0.2), 'actions': ['h', 'l']}",h,h,0.4088890552520752,0,True,True,True,1,False
585,1,"{'probs': (0.8, 0.2), 'actions': ['h', 'l']}",l,l,0.536733865737915,1,True,True,True,1,False
586,0,"{'probs': (0.8, 0.2), 'actions': ['j', 'k']}",k,l,0.48365187644958496,1,False,False,True,1,False
587,0,"{'probs': (0.8, 0.2), 'actions': ['j', 'k']}",j,h,0.36483192443847656,0,False,False,True,1,False
588,0,"{'probs': (0.8, 0.2), 'actions': ['j', 'k']}",k,l,0.5984759330749512,1,False,False,True,1,False
589,1,"{'probs': (0.8, 0.2), 'actions': ['j', 'k']}",j,j,0.43549013137817383,0,True,True,True,0,True
590,1,"{'probs': (0.8, 0.2), 'actions': ['j', 'k']}",j,j,0.5120820999145508,0,True,True,True,0,False
591,1,"{'probs': (0.8, 0.2), 'actions': ['j', 'k']}",k,k,0.633491039276123,1,True,True,True,0,False
592,0,"{'probs': (0.8, 0.2), 'actions': ['j', 'k']}",k,k,0.5437450408935547,1,True,True,True,0,False
593,1,"{'probs': (0.8, 0.2), 'actions': ['j', 'k']}",k,j,0.37259793281555176,1,False,True,False,0,False
594,1,"{'probs': (0.8, 0.2), 'actions': ['j', 'k']}",j,j,0.41437292098999023,0,True,True,True,0,False
595,0,"{'probs': (0.8, 0.2), 'actions': ['j', 'k']}",k,k,0.36018896102905273,1,True,True,True,0,False
596,1,"{'probs': (0.8, 0.2), 'actions': ['j', 'k']}",k,k,0.4757230281829834,1,True,True,True,0,False
597,1,"{'probs': (0.8, 0.2), 'actions': ['j', 'k']}",j,j,0.38065195083618164,0,True,True,True,0,False
598,1,"{'probs': (0.8, 0.2), 'actions': ['j', 'k']}",k,k,0.4330141544342041,1,True,True,True,0,False
599,1,"{'probs': (0.8, 0.2), 'actions': ['j', 'k']}",k,k,0.47574806213378906,1,True,True,True,0,False
600,0,"{'probs': (0.8, 0.2), 'actions': ['j', 'k']}",j,j,0.4462430477142334,0,True,True,True,0,False
